Time,Ax,Ay,Az,Gx,Gy,Gz,Breathing,Ground Truth
8.607054,0,0,0,0,0,0,0,0
8.607054,-9678.713,-18.53819,-1041.211,-510.6693,125.5002,1077.354,0,0
8.789586,-14954.05,-506.9873,-2173.341,-1019.155,-118.4201,678.2912,0,0
8.806179,-17674.42,-534.9501,-2455.596,-1272.367,-153.9717,1039.644,0,0
8.806179,-18837.82,-780.9399,-2955.732,-1383.199,-359.2837,1999.311,0,0
8.822772,-18963.85,-955.0959,-3244.67,-1409.465,-287.028,2007.301,0,0
8.822772,-19023.91,-1199.846,-3294.003,-1420.359,-231.6669,1977.791,0,0
8.822772,-19039.37,-1250.228,-3413.715,-1420.851,-168.8873,1635.496,0,0
8.822772,-18905.08,-1453.122,-3395.799,-1411.863,-255.4244,1007.901,0,0
8.822772,-18862.44,-1528.182,-3534.052,-1409.174,-403.8722,843.223,0,0
8.822772,-18811.5,-1496.587,-3627.718,-1401.203,-548.3759,675.9216,0,0
8.889146,-18795.52,-1395.281,-3671.355,-1399.441,-623.1124,842.1356,0,0
8.889146,-18791.7,-1396.638,-3751.459,-1397.382,-556.6776,939.3443,0,0
8.955517,-18699.38,-1357.1,-3712.534,-1386.162,-466.9312,886.9354,0,0
8.988707,-18684.54,-1351.812,-3762.07,-1389.044,-323.7587,745.7136,0,0
9.038483,-18639.48,-1342.926,-3734.655,-1385.156,-180.6392,719.4674,0,0
9.038483,-18527.83,-1340.025,-3714.392,-1379.844,-62.69341,618.3432,0,0
9.071669,-18444.97,-1406.506,-3805.985,-1364.636,53.35984,558.1935,0,0
9.088264,-18269.7,-1462.246,-3804.031,-1349.953,157.1983,383.073,0,0
9.121447,-18190.67,-1550.284,-3893.729,-1344.191,206.7789,393.3329,0,0
9.171597,-18146.65,-1587.833,-3867.991,-1328.153,180.6576,264.6355,0,0
9.221412,-17992.65,-1594.726,-3756.677,-1312.984,112.7647,206.3654,0,0
9.254611,-17860.85,-1559.27,-3744.635,-1303.12,130.8071,30.00036,0,0
9.271208,-17779.65,-1583.242,-3731.688,-1288.743,118.6084,-94.21357,0,0
9.354206,-17739.73,-1547.887,-3709.753,-1284.44,64.15074,-93.97153,0,0
9.354206,-17616.63,-1526.242,-3662.57,-1279.174,-49.67226,12.49411,0,0
9.387403,-17564.11,-1460.908,-3612.201,-1273.336,-109.3769,134.3087,0,0
9.404003,-17423.54,-1474.969,-3621.152,-1258.304,-127.8039,234.5607,0,0
9.437199,-17323.97,-1398.596,-3637.942,-1245.296,-103.0062,154.7188,0,0
9.453797,-17290.35,-1375.759,-3568.707,-1242.859,-70.32352,78.60201,0,0
9.536798,-17203.64,-1311.833,-3497.487,-1235.26,-53.69044,-11.17898,0,0
9.569995,-17079.58,-1231.211,-3485.065,-1232.688,-65.49639,-133.7038,0,0
9.586594,-17049.91,-1174.711,-3465.686,-1234.031,-6.736863,-241.661,0,0
9.619792,-17033.24,-1160.136,-3445.639,-1220.692,-47.13846,-97.53231,0,0
9.619792,-16970.63,-1157.789,-3410.888,-1213.937,-29.55226,217.1261,0,0
9.719387,-16892.37,-1175.944,-3472.548,-1212.287,-6.985916,409.526,0,0
9.752584,-16810.57,-1179.906,-3436.349,-1210.168,58.6263,241.2838,0,0
9.752584,-16762.13,-1247.247,-3330.988,-1207.742,139.3014,243.8855,0,0
9.802382,-16717.65,-1274.426,-3408.915,-1200.698,169.8492,255.7509,0,0
9.835579,-16688.89,-1298.534,-3366.878,-1194.608,121.7909,171.1263,0,0
9.85218,-16699.18,-1259.382,-3361.652,-1184.87,56.01072,79.80312,0,0
9.901976,-16663.31,-1196.307,-3344.859,-1172.397,213.8352,-242.4034,0,0
9.901976,-16646.77,-1214.804,-3362.541,-1180.045,363.6249,-481.2198,0,0
9.935174,-16646.5,-1147.333,-3284.819,-1180.958,580.0235,-680.8793,0,0
9.968371,-16594.74,-1122.794,-3221.825,-1181.171,765.7972,-1054.561,0,0
9.984969,-16587.04,-1177.75,-3121.586,-1172.012,867.0789,-1435.548,0,0
10.03458,-16587.87,-1282.395,-2902.282,-1169.019,980.2142,-1755.745,0,0
10.03458,-16556.71,-1396.067,-2799.539,-1166.345,902.5541,-1554.68,0,0
10.06796,-16599.94,-1465.464,-2663.331,-1155.081,780.7264,-1045.764,0,0
10.11566,-16560.67,-1494.204,-2595.986,-1163.874,673.9176,-688.3401,0,0
10.11566,-16471.81,-1590.407,-2582.614,-1161.433,511.6211,-547.306,0,0
10.16755,-16427.36,-1651.689,-2478.74,-1163.706,357.3953,-498.4094,0,0
10.16755,-16382.85,-1680.62,-2411.03,-1165.17,213.057,-442.9474,0,0
10.20076,-16397.27,-1681.465,-2324.601,-1161.594,53.64172,-300.9207,0,0
10.25055,-16462.44,-1695.22,-2310.406,-1158.613,-113.9151,-171.3503,0,0
10.25055,-16457.89,-1651.325,-2247.363,-1160.541,-236.1139,-53.84365,0,0
10.30034,-16389.02,-1629.929,-2267.761,-1161.802,-349.6648,10.95688,0,0
10.30034,-16387.51,-1621.44,-2252.238,-1153.701,-388.269,14.50476,0,0
10.35014,-16392.27,-1645.065,-2278.985,-1156.186,-424.5941,-11.92642,0,0
10.36674,-16400.81,-1635.666,-2236.061,-1144.625,-379.1349,22.14716,0,0
10.36674,-16422.29,-1636.504,-2190.805,-1148.932,-314.7291,63.72415,0,0
10.48294,-16419.38,-1634.146,-2235.768,-1152.094,-276.4787,55.03573,0,0
10.48294,-16412.3,-1593.941,-2239.979,-1154.379,-206.8959,43.91934,0,0
10.53273,-16401.02,-1574.743,-2269.428,-1151.563,-207.4276,48.45084,0,0
10.54933,-16372.23,-1542.907,-2230.576,-1153.718,-137.8889,21.50113,0,0
10.54933,-16342.35,-1526.978,-2267.986,-1150.818,-124.0211,27.86766,0,0
10.61573,-16351.66,-1504.458,-2232.943,-1144.062,-157.2723,-0.3460806,0,0
10.61573,-16384.37,-1471.423,-2207.834,-1143.237,-206.6076,-89.29002,0,0
10.66552,-16389.55,-1426.002,-2163.771,-1133.666,-288.6633,-156.6527,0,0
10.69872,-16352.65,-1413.312,-2134.065,-1139.582,-370.1311,-134.7644,0,0
10.69872,-16360.11,-1410.207,-2077.719,-1139.62,-387.852,-146.7883,0,0
10.74852,-16465.82,-1379.001,-2052.026,-1135.161,-323.259,153.1297,0,0
10.76512,-16459.34,-1428.273,-2069.76,-1136.133,-250.6782,488.1797,0,0
10.78172,-16330.46,-1398.355,-2273.532,-1145.697,-338.9167,567.435,0,0
10.83151,-16271.07,-1364.374,-2290.208,-1148.525,-465.3639,400.0385,0,0
10.84811,-16281.67,-1389.4,-2252.199,-1146.192,-487.313,392.9467,0,0
10.88131,-16236.21,-1435.172,-2317.519,-1139.917,-335.9152,373.2459,0,0
10.88131,-16289.73,-1398.123,-2342.146,-1135.072,-343.5505,165.0809,0,0
10.91451,-16352.47,-1353.143,-2304.532,-1135.768,-245.5901,43.02275,0,0
10.94771,-16385.59,-1339.861,-2218.24,-1140.706,-158.4304,39.54839,0,0
10.9643,-16349.45,-1358.631,-2182.391,-1144.451,-112.4414,117.4664,0,0
10.99751,-16355.66,-1387.489,-2148.676,-1138.412,-77.03887,195.4848,0,0
10.99751,-16274.67,-1405.166,-2210.818,-1142.625,37.41813,219.9543,0,0
11.11322,-16293.29,-1389.866,-2187.768,-1136.953,56.49754,115.3136,0,0
11.11322,-16370.44,-1390.344,-2066.292,-1137.021,71.20932,148.8787,0,0
11.16297,-16289.51,-1399.577,-2127.844,-1132.624,55.97966,173.2606,0,0
11.16297,-16273.85,-1402.199,-2182.021,-1138.112,33.67207,175.3324,0,0
11.16297,-16282.74,-1452.927,-2184.981,-1142.294,81.07397,203.8123,0,0
11.21275,-16249.5,-1479.443,-2262.807,-1141.037,91.47143,224.4868,0,0
11.22934,-16250.55,-1469.638,-2308.028,-1135.619,64.11699,117.0168,0,0
11.26254,-16191.44,-1514.035,-2322.635,-1135.891,141.435,89.22691,0,0
11.29572,-16129.63,-1574.358,-2202.99,-1131.659,397.8838,148.8275,0,0
11.29572,-16269.72,-1452.88,-2141.471,-1128.419,469.37,602.557,0,0
11.36209,-16379.07,-1391.915,-2273.041,-1125.947,273.1086,631.1093,0,0
11.41187,-16294.02,-1281.052,-2205.385,-1132.929,-151.1745,118.6363,0,0
11.42846,-16196.6,-1224.191,-2251.217,-1138.273,-555.9734,-118.035,0,0
11.44505,-16211.81,-1185.532,-2168.914,-1137.917,-710.3356,-154.8773,0,0
11.51143,-16235.68,-1228.453,-2163.728,-1133.198,-911.379,260.1712,0,0
11.51143,-16343.66,-1148.704,-2239.743,-1138.446,-1087.957,554.6508,0,0
11.52802,-16347.41,-976.3048,-2183.877,-1133.586,-1198.69,545.0935,0,0
11.52802,-16356.65,-648.0406,-2196.653,-1147.588,-957.5484,605.5236,0,0
11.5612,-16335.75,-623.2332,-2282.999,-1144.98,-792.7686,598.4236,0,0
11.62758,-16333.93,-613.618,-2411.062,-1138.525,-700.7947,615.5748,0,0
11.67736,-16258.12,-530.2668,-2399.059,-1138.003,-634.9455,468.5195,0,0
11.67736,-16296.44,-385.0283,-2329.709,-1142.025,-506.7784,452.3138,0,0
11.69395,-16299.09,-406.4617,-2392.775,-1145.088,-466.3934,588.4344,0,0
11.72714,-16275.55,-412.45,-2548.225,-1142.978,-518.5442,557.0182,0,0
11.77692,-16306.23,-269.132,-2565.795,-1145.775,-597.683,466.6752,0,0
11.8101,-16311.88,-212.252,-2543.145,-1147.894,-636.1143,458.0297,0,0
11.8101,-16341.58,-253.7129,-2575.089,-1149.49,-669.9034,484.2873,0,0
11.89306,-16323.15,-232.8992,-2529.149,-1155.113,-657.442,525.3186,0,0
11.89306,-16325.52,-153.2776,-2628.661,-1150.516,-544.8268,577.8639,0,0
11.92625,-16310.6,-139.5034,-2691.995,-1151.399,-494.8551,573.2125,0,0
11.92625,-16279.15,-69.73301,-2690.958,-1143.184,-493.8154,481.0504,0,0
12.0424,-16330.4,25.11789,-2771.4,-1141.318,-406.1801,456.7288,0,0
12.05899,-16340.71,51.52978,-2842.073,-1144.318,-321.9706,342.6264,0,0
12.12536,-16332.96,-87.41473,-2873.021,-1151.037,-348.5916,267.7961,0,0
12.14195,-16350.17,-156.4567,-2781.586,-1138.432,-421.5012,131.816,0,0
12.22492,-16321.1,-178.378,-2714.146,-1142.08,-450.7392,139.3114,0,0
12.22492,-16310.95,-166.3168,-2702.946,-1144.871,-442.8684,186.271,0,0
12.2747,-16340.8,-170.3015,-2804.657,-1146.999,-369.4946,155.0203,0,0
12.30788,-16382.38,-125.576,-2746.677,-1144.184,-302.3635,132.068,0,0
12.30788,-16394.07,-95.67254,-2730.554,-1137.59,-255.951,226.8352,0,0
12.34107,-16338.55,-128.0916,-2819.665,-1132.552,-206.6646,122.0752,0,0
12.35766,-16325.87,-101.7469,-2760.959,-1137.578,-139.2104,-35.79892,0,0
12.47381,-16395.88,21.64745,-2671.223,-1132.572,-177.8993,83.39459,0,0
12.47381,-16376.16,90.60441,-2703.089,-1137.62,-217.6967,212.5128,0,0
12.52311,-16383.07,106.7013,-2767.074,-1141.493,-228.3111,109.8887,0,0
12.57288,-16300.68,146.6078,-2761.353,-1153.317,-214.0422,114.2091,0,0
12.57288,-16254.27,153.7595,-2849.634,-1149.047,-189.0453,64.67954,0,0
12.58948,-16242.15,185.7346,-2830.24,-1145.757,-21.83055,-76.9429,0,0
12.58948,-16327.21,124.8193,-2868.062,-1147.66,14.89424,-285.4449,0,0
12.70556,-16351.31,88.26133,-2827.772,-1149.102,-33.10984,-576.5522,0,0
12.72215,-16420.63,118.1314,-2785.407,-1150.19,-213.4084,-888.4657,0,0
12.72215,-16424.72,285.2505,-2383.756,-1137.711,-470.1689,-951.1826,0,0
12.73873,-16450.86,488.4284,-2236.397,-1137.03,-602.6224,-196.3381,0,0
12.7719,-16439.57,697.7536,-2389.302,-1136.522,-711.8894,247.8677,0,0
12.82166,-16370.85,786.1976,-2436.035,-1145.009,-631.4742,293.8861,0,0
12.83639,-16297.1,974.7455,-2432.351,-1147.069,-265.6499,222.154,0,0
12.87143,-16354.85,1045.748,-2457.624,-1130.91,-0.6920298,233.2835,0,0
12.87143,-16371.33,1033.361,-2489.477,-1140.72,119.6693,243.3267,0,0
12.9046,-16342.88,1023.762,-2385.584,-1134.94,187.7868,96.61374,0,0
12.93777,-16354.33,1109.504,-2289.874,-1130.531,299.7147,158.4326,0,0
12.93777,-16426.21,1075.409,-2432.163,-1131.611,227.8569,362.0541,0,0
13.00412,-16394.64,1088.238,-2483.792,-1128.029,122.1478,268.0465,0,0
13.00412,-16377.01,1119.355,-2410.474,-1138.609,86.93417,257.6992,0,0
13.08704,-16396.67,1176.696,-2364.616,-1137.849,147.9235,305.6412,0,0
13.1368,-16401.64,1169.897,-2379.759,-1137.272,230.6777,302.8498,0,0
13.1368,-16411.99,1099.708,-2465.921,-1132.403,274.2767,219.978,0,0
13.18657,-16404.27,979.0363,-2526.478,-1137.554,252.3934,188.1745,0,0
13.20315,-16369.44,915.3551,-2508.564,-1132.639,202.9105,120.5064,0,0
13.20315,-16380.43,937.6258,-2539.174,-1133.321,173.1729,206.3934,0,0
13.20315,-16367.75,950.38,-2559.23,-1133.856,92.75007,230.462,0,0
13.25291,-16396.8,981.3512,-2621.012,-1138.707,-30.1351,132.648,0,0
13.30267,-16359.15,1069.455,-2493.04,-1133.557,-40.65198,-21.41299,0,0
13.30267,-16407.88,1077.075,-2443.87,-1134.055,-47.90889,64.312,0,0
13.33584,-16368.65,1022.006,-2510.541,-1130.015,-80.62257,43.7226,0,0
13.33584,-16370.73,1052.064,-2501.786,-1131.37,-118.3483,-35.79934,0,0
13.40219,-16366.78,1007.699,-2541.648,-1127.99,-157.6101,-120.388,0,0
13.45195,-16398.1,882.132,-2450.252,-1138.716,-104.9073,-167.4115,0,0
13.45195,-16439.74,877.5177,-2467.948,-1142.492,-289.3419,-167.867,0,0
13.48511,-16407.2,1255.796,-2276.663,-1140.938,-364.9508,-346.5074,0,0
13.48511,-16341.21,1571.877,-2117.462,-1130.876,-272.0579,17.06065,0,0
13.53695,-16367.2,1708.934,-2274.527,-1132.048,-211.5882,367.2626,0,0
13.58671,-16331.73,1767.408,-2424.076,-1137.388,-236.7642,360.481,0,0
13.6033,-16284.73,1863.18,-2371.405,-1132.612,-168.7798,247.6951,0,0
13.6033,-16283.28,1991.835,-2344.589,-1137.826,-29.91798,375.3122,0,0
13.6033,-16275.73,1979.321,-2451.724,-1141.815,1.138146,441.0671,0,0
13.65306,-16239.12,1970.767,-2563.669,-1140.426,-1.670352,322.7982,0,0
13.70282,-16229.1,2026.325,-2559.387,-1143.784,72.36227,178.6056,0,0
13.75258,-16290.4,1965.897,-2529.282,-1141.907,154.3881,147.5912,0,0
13.85209,-16289.82,1842.401,-2521.585,-1144.89,284.1823,108.0444,0,0
13.85209,-16306.12,1842.725,-2496.73,-1138.295,282.9984,49.59612,0,0
13.90145,-16289.87,1975.604,-2435.541,-1133.244,194.5927,-19.86718,0,0
13.90145,-16305.23,2062.405,-2359.972,-1133.818,246.5398,33.94026,0,0
13.91844,-16356.94,1959.825,-2498.452,-1129.836,173.2229,159.5542,0,0
13.93502,-16328.9,2029.411,-2461.498,-1126.805,147.3861,117.4473,0,0
13.98478,-16317.41,2012.5,-2481.955,-1124.509,225.8436,146.9813,0,0
14.03454,-16348.52,2074.606,-2462.131,-1122.779,244.9625,234.6229,0,0
14.03454,-16310.27,2007.709,-2463.579,-1130.347,218.9067,318.0857,0,0
14.0843,-16292.12,2051.651,-2480.204,-1131.723,215.4046,294.5852,0,0
14.0843,-16253.94,2102.878,-2530.565,-1128.352,254.1305,311.9534,0,0
14.13405,-16254.79,2223.884,-2612.18,-1134.648,254.7756,291.0789,0,0
14.16722,-16266.69,2367.086,-2554.692,-1139.468,201.3619,202.497,0,0
14.18381,-16291.45,2396.308,-2613.519,-1134.285,66.82696,47.34416,0,0
14.2004,-16277.23,2371.518,-2591.783,-1130.316,-146.1028,-110.7726,0,0
14.25015,-16246.49,2345.408,-2415.373,-1136.15,-170.9606,-117.6452,0,0
14.26667,-16297.34,2308.469,-2447.767,-1131.75,-99.41898,28.93494,0,0
14.28333,-16265.41,2335.414,-2501.476,-1132.819,-96.89622,13.46306,0,0
14.34952,-16267.66,2317.115,-2450.623,-1129.209,-102.658,-29.41216,0,0
14.43261,-16294.95,2299.74,-2429.502,-1126.458,-59.93196,70.21833,0,0
14.43261,-16294.82,2257.696,-2456.671,-1133.231,-81.00939,150.7569,0,0
14.48236,-16264.84,2229.047,-2473.108,-1138.417,-137.332,156.6586,0,0
14.48236,-16238.65,2271.703,-2427.003,-1124.652,-144.6373,105.9565,0,0
14.51554,-16257.52,2284.705,-2377.429,-1122.997,-53.48413,172.9485,0,0
14.51554,-16279.83,2217.409,-2418.366,-1126.184,-64.70467,191.4223,0,0
14.56528,-16275.89,2176.353,-2409.961,-1124.21,-123.5513,146.1227,0,0
14.59845,-16289.54,2248.573,-2393.698,-1127.148,-142.572,124.1169,0,0
14.61496,-16278.96,2242.323,-2421.3,-1124.978,-168.1801,149.0825,0,0
14.6648,-16290.83,2254.69,-2413.73,-1123.332,-168.047,155.3955,0,0
14.69797,-16298.82,2242.542,-2437.956,-1126.522,-122.7446,140.7679,0,0
14.74773,-16290.52,2209.468,-2476.494,-1124.543,-134.9303,142.8254,0,0
14.76432,-16275.31,2229.162,-2433.947,-1118.611,-150.1283,135.7765,0,0
14.79749,-16291.4,2221.66,-2368.192,-1118.528,-146.0069,186.8575,0,0
14.84725,-16302.61,2214.423,-2419.972,-1114.059,-101.36,195.6421,0,0
14.84725,-16280.16,2173.087,-2403.197,-1115.104,-80.08404,211.9086,0,0
14.88043,-16267.42,2133.452,-2414.834,-1120.366,-92.26878,260.1843,0,0
14.93019,-16251.08,2128.463,-2366.216,-1119.981,-83.79725,250.0562,0,0
14.93019,-16327.29,2113.461,-2403.401,-1124.134,-103.292,217.4048,0,0
14.97994,-16317.98,2103.021,-2397.62,-1122.889,-153.2964,165.3832,0,0
15.06288,-16293.05,2065.083,-2457.545,-1126.375,-173.0968,111.125,0,0
15.06288,-16353.73,2075.974,-2418.078,-1124.613,-190.7831,128.1226,0,0
15.11264,-16347.97,2085.45,-2417.816,-1132.13,-201.837,71.4058,0,0
15.12922,-16310.21,2098.25,-2356.731,-1124.578,-217.2179,-11.98869,0,0
15.14581,-16306.75,2105.811,-2315.686,-1127.663,-212.3504,-21.18229,0,0
15.19557,-16267.52,2104.911,-2293.394,-1138.885,-185.9142,24.22455,0,0
15.19557,-16261.93,2107.508,-2353.076,-1134.154,-203.6936,16.03842,0,0
15.24533,-16247.76,2114.994,-2258.236,-1134.946,-169.7195,21.93522,0,0
15.26192,-16268.05,2092.974,-2289.013,-1139.966,-141.9084,66.00518,0,0
15.26192,-16281.43,2082.759,-2328.364,-1139.35,-142.1537,46.40807,0,0
15.26192,-16287.26,2072.744,-2332.075,-1125.56,-144.4981,28.78389,0,0
15.26192,-16292.85,2082.847,-2277.46,-1128.303,-139.585,27.1053,0,0
15.26192,-16299.34,2070.66,-2262.499,-1134.836,-126.6373,80.00348,0,0
15.26192,-16295.42,2046.974,-2300.078,-1126.531,-142.4668,97.83975,0,0
15.26192,-16310.14,2064.388,-2273.647,-1133.473,-144.2904,59.98159,0,0
15.54434,-16331.34,2060.051,-2241.461,-1121.052,-123.7561,84.5331,1,0
15.54434,-16351.91,1996.969,-2254.783,-1120.424,-130.4664,131.8826,1,0
15.54434,-16318.78,2031.96,-2244.188,-1119.964,-153.0367,121.7977,1,0
15.6273,-16335.46,2052.219,-2209.752,-1128.494,-139.5086,93.79783,1,0
15.6273,-16311.59,2053.387,-2254.615,-1135.024,-110.285,157.9459,1,0
15.69368,-16320.98,2044.364,-2274.771,-1131.145,-100.4102,159.0078,1,0
15.74346,-16303.76,2037.525,-2287.028,-1137.031,-108.9723,182.116,1,0
15.74346,-16300.54,2011.323,-2259.964,-1137.087,-90.63891,151.9891,1,0
15.77645,-16303.61,1994.725,-2313.632,-1132.679,-95.23476,160.6671,1,0
15.79324,-16314.83,1989.943,-2222.927,-1133.727,-74.44466,204.8591,1,0
15.82643,-16325.61,2001.964,-2306.597,-1130.089,-68.05064,195.8297,1,0
15.87621,-16348.21,2000.227,-2304.226,-1127.303,-42.778,189.0098,1,0
15.87621,-16322.21,1972.441,-2298.015,-1111.882,-35.22995,206.8951,1,0
15.92599,-16328.85,1959.111,-2316.572,-1117.842,-20.21361,265.8194,1,0
16.00896,-16307.3,2010.046,-2295.333,-1118,-14.45989,295.1085,1,0
16.02555,-16294.12,2010.353,-2351.13,-1127.008,18.26427,367.2917,1,0
16.05874,-16290.72,2010.662,-2322.871,-1125.043,-6.249949,396.8372,1,0
16.05874,-16273.75,1967.763,-2301.222,-1123.546,-6.387825,380.6774,1,0
16.10852,-16278.56,1968.317,-2344.507,-1126.839,41.50748,419.6002,1,0
16.14171,-16333.27,1925.693,-2407.497,-1129.362,68.47244,462.9692,1,0
16.14171,-16329.67,1880.012,-2490.967,-1126.857,69.39307,448.4644,1,0
16.19149,-16323.53,1873.073,-2587.717,-1129.371,32.10962,357.0352,1,0
16.24127,-16326.55,1844.837,-2569.245,-1135.723,-17.7029,254.0356,1,0
16.24127,-16312.2,1862.379,-2492.537,-1122.841,-20.20346,271.2209,1,0
16.29105,-16300.09,1835.148,-2544.267,-1126.284,-10.56149,258.8116,1,0
16.32405,-16314.11,1806.915,-2539.144,-1124.491,-56.44738,203.5589,1,0
16.32405,-16314.86,1824.489,-2558.099,-1127.557,-76.32948,147.4847,1,0
16.37401,-16339.79,1805.064,-2639.78,-1134.336,-120.8437,123.5906,1,0
16.4072,-16359.91,1780.601,-2677.372,-1130.647,-218.4585,18.30937,1,0
16.42379,-16394.04,1817.677,-2621.325,-1127.815,-269.8239,-55.44416,1,0
16.47357,-16397.82,1838.617,-2613.391,-1125.647,-360.4531,-84.6917,1,0
16.50676,-16382.8,1808.362,-2575.875,-1123.993,-407.0123,-158.2045,1,0
16.50676,-16386.67,1836.452,-2484.8,-1127.166,-412.8308,-141.9535,1,0
16.55655,-16359.57,1855.959,-2453.761,-1129.597,-417.1162,-74.50233,1,0
16.58974,-16334.32,1822.308,-2461.014,-1135.884,-441.86,-121.7561,1,0
16.60633,-16351.54,1831.111,-2382.357,-1131.817,-522.1297,-112.4642,1,0
16.6893,-16386.83,1890.111,-2427.543,-1128.693,-592.9744,-197.2993,1,0
16.6893,-16393.78,1883.264,-2272.762,-1126.301,-739.8446,-414.6888,1,0
16.73908,-16370.16,1923.497,-2050.532,-1124.474,-662.6968,-173.3795,1,0
16.77227,-16364.19,1891.117,-2119.473,-1127.515,-589.0301,157.0713,1,0
16.78886,-16307.49,1900.702,-2201.772,-1129.845,-531.8315,148.6736,1,0
16.80546,-16318.44,1905.839,-2202.117,-1131.624,-497.3929,142.2974,1,0
16.85524,-16326.88,1966.269,-2174.024,-1128.547,-497.1143,155.2216,1,0
16.87183,-16294.59,1957.006,-2196.206,-1121.759,-486.7396,94.55678,1,0
16.92161,-16279.94,1939.829,-2208.06,-1129.871,-501.6422,7.057978,1,0
16.97124,-16326.46,1994.185,-2165.427,-1127.215,-457.2334,-63.11091,1,0
16.98799,-16304.49,1981.331,-2138.761,-1134.046,-411.8516,-43.69051,1,0
16.98799,-16326.51,1986.847,-2169.779,-1125.968,-352.2786,5.491411,1,0
17.05437,-16336.73,1962.112,-2132.978,-1124.22,-334.8886,136.0447,1,0
17.08755,-16335.68,1924.251,-2230.426,-1127.322,-335.993,138.8755,1,0
17.13733,-16313.81,1852.064,-2204.418,-1129.699,-342.6693,126.9995,1,0
17.13733,-16336.99,1809.154,-2071.746,-1140.377,-399.0154,61.52813,1,0
17.18712,-16352.51,1741.117,-1971.809,-1135.23,-351.1836,260.6607,1,0
17.2203,-16324.46,1641.803,-2094.333,-1131.274,-310.6671,462.7979,1,0
17.2369,-16316.29,1579.681,-2189.671,-1132.671,-317.9456,402.5699,1,0
17.27008,-16297.88,1509.592,-2174.213,-1133.732,-314.994,272.0883,1,0
17.31987,-16345.9,1478.948,-2262.273,-1125.672,-345.2014,257.6587,1,0
17.36965,-16337.21,1476.315,-2213.353,-1119.51,-402.3851,153.5109,1,0
17.40284,-16346.05,1462.962,-2162.693,-1119.246,-424.6989,173.6898,1,0
17.41943,-16369.39,1469.078,-2150.696,-1114.636,-415.283,112.0482,1,0
17.45262,-16400.47,1416.928,-2098.529,-1115.57,-414.285,43.57631,1,0
17.48564,-16377.58,1392.25,-2119.849,-1120.745,-374.0468,92.16979,1,0
17.48564,-16371.03,1355.385,-2163.026,-1129.153,-393.0446,171.5588,1,0
17.53559,-16395.85,1332.492,-2164.109,-1122.291,-473.1428,112.041,1,0
17.58536,-16375.95,1355.75,-2106.361,-1121.479,-490.9979,127.9904,1,0
17.58536,-16360.64,1385.439,-2050.225,-1120.868,-410.2072,224.9486,1,0
17.66833,-16386.54,1352.359,-2085.173,-1129.276,-293.1427,249.3832,1,0
17.71811,-16405.18,1290.092,-2190.868,-1126.844,-270.4452,235.1357,1,0
17.71811,-16383.86,1245.463,-2183.188,-1133.842,-256.3484,125.4042,1,0
17.7679,-16367.46,1273.114,-2144.105,-1130.319,-230.3017,79.09464,1,0
17.7679,-16411.37,1246.321,-2164.153,-1132.044,-225.3403,50.43571,1,0
17.80108,-16406.08,1176.752,-2228.315,-1133.353,-233.1953,27.87369,1,0
17.85086,-16390.84,1201.949,-2289.542,-1121.046,-254.9827,-41.76814,1,0
17.90065,-16403.47,1171.092,-2195.502,-1116.069,-262.1691,-78.90053,1,0
17.90065,-16384.24,1171.565,-2220.992,-1125.578,-271.718,-94.67535,1,0
18.00021,-16343.99,1230.321,-2182.85,-1123.998,-281.1053,-245.578,1,0
18.0334,-16397.41,1233.82,-2120.45,-1127.226,-289.785,-309.9041,1,0
18.04999,-16434.91,1243.708,-2057.348,-1125.264,-327.53,-347.9895,1,0
18.08318,-16410.29,1224.093,-1993.847,-1137.057,-337.8618,-416.9025,1,0
18.08318,-16409.07,1129.838,-1864.814,-1132.768,-373.4305,-348.9548,1,0
18.13296,-16399.18,1140.367,-1885.288,-1129.47,-354.0177,-245.1186,1,0
18.16615,-16404.84,1178.995,-1868.38,-1131.371,-355.7034,-260.327,1,0
18.18275,-16441.24,1169.219,-1718.719,-1128.385,-352.7725,-158.4148,1,0
18.2158,-16441.26,1225.4,-1832.198,-1130.528,-411.6781,136.4828,1,0
18.24899,-16425.62,1175.721,-1821.142,-1127.731,-525.5493,365.1792,1,0
18.26572,-16398.04,1243.381,-1837.687,-1134.452,-574.0676,457.6423,1,0
18.3155,-16400.15,1327.585,-1847.596,-1135.15,-480.5077,310.75,1,0
18.34904,-16451.6,1292.412,-1827.998,-1131.238,-400.8239,307.521,1,0
18.34904,-16413.29,1284.45,-1922.084,-1123.804,-312.0302,284.1741,1,0
18.39884,-16422.67,1279.609,-1943.44,-1126.986,-253.311,191.2325,1,0
18.43203,-16427.57,1243.926,-1925.659,-1120.563,-229.3842,119.201,1,0
18.48164,-16435.68,1213.508,-1893.451,-1124.526,-197.2438,52.84441,1,0
18.48164,-16438.47,1172.778,-1897.894,-1123.137,-166.6285,73.25232,1,0
18.5316,-16401.73,1150.822,-1903.787,-1122.085,-149.6962,46.21764,1,0
18.56479,-16361.42,1132.194,-1930.701,-1130.154,-133.0106,103.395,1,0
18.61458,-16328.43,1251.288,-1933.752,-1127.463,-136.4699,78.13017,1,0
18.63117,-16420.76,1272.802,-1853.154,-1125.402,-123.4715,42.70205,1,0
18.66436,-16436.01,1238.373,-1834.979,-1119.398,-140.2527,87.09387,1,0
18.69755,-16406.6,1188.882,-1937.741,-1110.387,-111.6426,104.1469,1,0
18.71414,-16416.18,1198.87,-1842.595,-1107.958,-137.2257,31.82159,1,0
18.74734,-16410.19,1163.521,-1797.753,-1106.141,-160.1857,-19.03166,1,0
18.79712,-16407.79,1125.657,-1747.205,-1109.225,-154.4772,28.09537,1,0
18.81372,-16401.51,1126.931,-1720.081,-1111.621,-152.5734,73.40629,1,0
18.84691,-16345.73,1129.347,-1719.791,-1117.914,-151.6346,155.7104,1,0
18.92955,-16390.67,1139.259,-1769.929,-1118.312,-174.4105,115.2075,1,0
18.92955,-16406.27,1154.871,-1816.436,-1118.626,-229.4021,125.6258,1,0
18.97968,-16406,1182.55,-1804.642,-1118.874,-289.8119,134.3039,1,0
19.02947,-16423.5,1169.539,-1881.159,-1127.933,-405.1844,55.22725,1,0
19.02947,-16406.93,1235.068,-1757.01,-1134.855,-408.9434,-84.47707,1,0
19.06265,-16403.09,1312.935,-1668.939,-1126.83,-395.66,-29.32709,1,0
19.12903,-16401.25,1289.284,-1702.848,-1116.244,-306.5118,65.47394,1,0
19.12903,-16400.95,1266.621,-1753.605,-1112.586,-264.4687,70.47769,1,0
19.16223,-16402.93,1238.129,-1802.719,-1114.24,-241.4277,102.5378,1,0
19.19542,-16423.27,1246.234,-1851.55,-1115.524,-244.3456,97.08016,1,0
19.21201,-16434.36,1223.626,-1856.836,-1120.953,-235.0032,85.34655,1,0
19.2452,-16428.37,1230.732,-1797.746,-1120.679,-213.7997,128.3842,1,0
19.29499,-16435.92,1260.57,-1754.866,-1107.177,-182.1757,195.5354,1,0
19.29499,-16425,1256.782,-1786.527,-1105.735,-162.8585,233.0861,1,0
19.34478,-16404.41,1359.087,-1827.54,-1100.233,-182.3569,322.3991,1,0
19.39456,-16421.89,1328.58,-1767.044,-1096.067,-131.5379,293.0154,1,0
19.39456,-16429.7,1311.68,-1726.449,-1101.793,-128.3528,293.875,1,0
19.42776,-16412.37,1303.032,-1682.346,-1101.782,-102.6424,250.6159,1,0
19.47738,-16445.62,1355.014,-1632.324,-1097.378,-16.80299,296.392,1,0
19.52732,-16451.05,1356.924,-1694.187,-1102.911,70.57836,290.0535,1,0
19.52732,-16436.28,1203.075,-1798.343,-1116.037,96.36972,249.3873,1,0
19.56052,-16398.33,1166.301,-1861.504,-1117.221,91.87261,335.7077,1,0
19.6103,-16414.74,1190.448,-1899.77,-1122.551,35.70768,272.8599,1,0
19.6103,-16411.79,1216.858,-1893.411,-1122.181,22.95928,296.4811,1,0
19.66009,-16412.86,1242.713,-1944.858,-1113.017,20.24808,331.9875,1,0
19.69328,-16435.83,1220.442,-1960.692,-1119.299,-22.10613,280.1478,1,0
19.70987,-16426.79,1193.498,-1972.501,-1119.668,-98.5694,245.2108,1,0
19.74306,-16433.13,1230.612,-1959.06,-1111.077,-133.9307,201.7096,1,0
19.79285,-16452.35,1230.269,-1862.083,-1117.803,-147.7022,171.7021,1,0
19.87582,-16424.88,1204.569,-1865.345,-1118.516,-118.8771,190.3186,1,0
19.89242,-16419.34,1179.451,-1881.1,-1110.192,-113.174,197.3756,1,0
19.92561,-16431.72,1164.804,-1880.905,-1112.693,-153.1594,134.9124,1,0
19.9754,-16457.78,1177.033,-1901.737,-1114.614,-187.0423,115.4691,1,0
19.9754,-16427.8,1236.39,-1799.04,-1116.087,-161.8927,82.19979,1,0
20.00859,-16429.2,1264.106,-1816.921,-1108.349,-160.8473,123.1604,1,0
20.02518,-16403.66,1325.136,-1849.533,-1106.872,-105.1494,30.30522,1,0
20.0749,-16405.21,1226.53,-1844.597,-1110.191,-64.79203,76.97953,1,0
20.10812,-16389.81,1179.863,-1905.087,-1108.31,-47.62756,90.77736,1,0
20.10812,-16408.01,1132.086,-1925.796,-1106.884,-116.3833,-12.8678,1,0
20.14135,-16426.39,1160.003,-1785.281,-1110.24,-147.7276,-49.44736,1,0
20.19114,-16447.1,1170.467,-1799.721,-1112.817,-146.7499,161.1938,1,0
20.20756,-16424.12,1178.613,-1834.171,-1114.791,-130.1681,56.27553,1,0
20.24092,-16451.93,1169.446,-1807.414,-1120.73,-114.6969,126.799,1,0
20.29071,-16411.12,1174.735,-1849.065,-1125.259,-118.669,125.9811,1,0
20.32374,-16423.09,1191.073,-1917.51,-1124.269,-143.0565,144.4841,1,0
20.32374,-16426.72,1212.503,-1902.177,-1123.487,-166.6767,90.21957,1,0
20.37369,-16427.28,1268.797,-1877.023,-1131.73,-127.0645,145.9844,1,0
20.42348,-16425.47,1237.548,-1917.531,-1124.709,-110.8651,118.8582,1,0
20.42348,-16407.46,1232.405,-1885.255,-1119.314,-112.3539,140.4943,1,0
20.47326,-16402.57,1216.247,-1840.539,-1110.745,-110.2095,155.656,1,0
20.50641,-16405.52,1177.295,-1893.865,-1104.198,-110.2712,244.4796,1,0
20.50641,-16422.22,1165.292,-1932.399,-1108.077,-167.4099,168.7675,1,0
20.60603,-16412.84,1202.752,-1791.133,-1111.066,-166.75,45.64299,1,0
20.65581,-16443.34,1177.178,-1828.266,-1113.365,-153.6906,151.2768,1,0
20.65581,-16482.15,1111.153,-1940.969,-1119.561,-190.4405,-9.931327,1,0
20.689,-16476.27,1073.022,-1848.715,-1124.294,-248.9049,-81.22871,1,0
20.7056,-16457.24,1150.489,-1798.054,-1119.035,-238.5639,-112.3349,1,0
20.73879,-16474.72,1175.576,-1707.35,-1119.431,-221.2754,-91.01849,1,0
20.77198,-16475.82,1198.156,-1639.367,-1119.727,-212.2919,-0.8404287,1,0
20.82177,-16461.04,1207.682,-1698.597,-1128.807,-186.4347,27.99763,1,0
20.82177,-16427.5,1204.974,-1735.42,-1131.299,-236.3514,1.478388,1,0
20.92116,-16437.29,1226.142,-1696.267,-1124.311,-205.1439,4.634706,1,0
20.92116,-16448.11,1213.475,-1696.507,-1127.807,-173.111,106.9335,1,0
20.97112,-16463.01,1263.56,-1661.531,-1130.462,-163.792,85.76429,1,0
20.98772,-16447.76,1227.532,-1651.724,-1119.173,-177.1505,107.7553,1,0
21.00432,-16452.68,1223.149,-1708.829,-1128.254,-190.6703,183.7911,1,0
21.0541,-16410.99,1237.471,-1699.585,-1126.325,-198.1904,88.8872,1,0
21.08729,-16434.52,1206.262,-1634.008,-1124.832,-204.9794,70.21747,1,0
21.10381,-16421.53,1218.924,-1560.891,-1123.678,-161.3457,130.1821,1,0
21.15368,-16422.7,1218.619,-1607.338,-1118.356,-140.9721,226.3945,1,0
21.15368,-16382.64,1272.64,-1638.844,-1109.855,-134.0248,174.5518,1,0
21.18686,-16388.64,1237.412,-1580.161,-1107.802,-116.0455,181.4723,1,0
21.23665,-16440.98,1252.472,-1567.757,-1106.259,-86.61073,243.6289,1,0
21.23665,-16441.15,1208.519,-1599.657,-1105.109,-87.24118,246.5785,1,0
21.28644,-16425.75,1181.527,-1596.699,-1113.123,-86.50909,206.1435,1,0
21.31962,-16420.61,1170.908,-1738.749,-1110.407,-98.85048,201.564,1,0
21.36941,-16418.92,1204.973,-1743.328,-1108.345,-137.504,138.6063,1,0
21.36941,-16428.73,1196.727,-1657.041,-1106.787,-175.1575,71.82031,1,0
21.40181,-16407.44,1213.71,-1537.943,-1114.48,-136.3468,109.1662,1,0
21.45239,-16443.26,1155.803,-1638.823,-1107.081,-119.1226,181.283,1,0
21.46898,-16426.34,1132.641,-1707.362,-1114.73,-110.1578,142.4823,1,0
21.48558,-16406.74,1141.669,-1835.16,-1116.158,-185.6348,68.98032,0,0
21.55196,-16423.91,1221.841,-1734.4,-1108.387,-288.196,-49.1945,0,0
21.55196,-16492.46,1228.892,-1637.25,-1102.453,-299.9229,47.67696,0,0
21.60175,-16412.97,1257.487,-1585.193,-1097.941,-245.9664,136.1375,0,0
21.63494,-16407.53,1282.574,-1646.433,-1103.386,-192.8229,211.5688,0,0
21.66813,-16442.2,1272.796,-1685.697,-1103.149,-178.3814,167.1749,0,0
21.68473,-16415.54,1258.512,-1778.933,-1098.56,-170.3477,192.8895,0,0
21.73451,-16409.55,1265.191,-1698.358,-1103.941,-167.2406,123.7852,0,0
21.76752,-16448.23,1224.767,-1635.561,-1116.942,-142.7109,207.4135,0,0
21.81749,-16457.85,1243.65,-1624.19,-1118.02,-133.4082,223.3401,0,0
21.81749,-16462.93,1213.737,-1663.292,-1118.831,-124.7055,174.3839,0,0
21.86728,-16471.18,1166.476,-1696.627,-1128.297,-99.86103,220.7216,0,0
21.91706,-16460.78,1173.619,-1768.667,-1126.645,-117.5469,152.9783,0,0
21.95026,-16402.91,1184.73,-1791.519,-1129.779,-197.9354,-3.883046,0,0
21.96685,-16432.9,1265.315,-1610.492,-1136.573,-183.5083,11.50922,0,0
22.00004,-16463.62,1233.838,-1603.926,-1137.291,-162.9894,137.4141,0,0
22.04983,-16406.2,1227.418,-1640.107,-1137.791,-116.8094,150.4333,0,0
22.04983,-16421.02,1200.32,-1628.05,-1124.831,-92.63363,135.9775,0,0
22.0827,-16447.9,1151.916,-1601.237,-1119.323,-60.98608,203.8243,0,0
22.13273,-16434.12,1144.917,-1670.637,-1110.674,-51.37899,244.7973,0,0
22.13273,-16404.72,1140.827,-1675.056,-1112.932,-41.76451,179.8046,0,0
22.1821,-16421.06,1142.287,-1636.354,-1119.105,-10.275,280.8841,0,0
22.23186,-16446.89,1109.213,-1696.555,-1119.398,-0.5933374,277.3582,0,0
22.24846,-16415.68,1099.617,-1684.999,-1115.188,-46.94294,194.04,0,0
22.26505,-16411.76,1054.834,-1678.35,-1116.402,-61.01419,194.1317,0,0
22.31482,-16433.18,1112.816,-1631.162,-1108.474,-65.83566,187.7489,0,0
22.3646,-16424.09,1114.175,-1636.132,-1102.425,-57.18546,214.3709,0,0
22.3646,-16426.01,1124.234,-1743.059,-1102.26,-52.63536,193.0895,0,0
22.41437,-16429.71,1145.352,-1697.369,-1106.599,-67.8451,162.8812,0,0
22.49733,-16442.51,1084.042,-1701.111,-1105.512,-88.44772,196.8127,0,0
22.49733,-16460.04,1082.724,-1763.744,-1109.133,-141.6515,121.0814,0,0
22.54711,-16445.69,1128.443,-1657.518,-1111.92,-165.9606,42.43543,0,0
22.58029,-16465.7,1166.852,-1623.881,-1105.197,-132.3657,113.2307,0,0
22.59688,-16473.18,1188.491,-1603.805,-1104.501,-106.5885,165.6083,0,0
22.63006,-16454.45,1148.495,-1661.729,-1103.991,-111.7871,161.9333,0,0
22.66325,-16455.58,1153.353,-1676.203,-1108.053,-122.412,118.6726,0,0
22.66325,-16457.51,1151.552,-1683.958,-1111.175,-108.9176,144.0763,0,0
22.72961,-16463.37,1144.656,-1618.976,-1113.568,-90.28257,191.803,0,0
22.7462,-16473.34,1131.658,-1727.769,-1115.398,-88.80349,207.21,0,0
22.7462,-16455.43,1126.203,-1689.081,-1116.792,-81.62872,143.2789,0,0
22.81256,-16423.95,1125.425,-1733.648,-1113.418,-55.70553,212.3466,0,0
22.86234,-16447.54,1133.764,-1782.038,-1115.264,-61.45865,199.1889,0,0
22.89552,-16414.62,1165.678,-1798.905,-1112.241,-64.85834,192.9019,0,0
22.91211,-16410.54,1219.996,-1777.207,-1114.359,-53.14857,191.3416,0,0
22.9287,-16410.8,1217.118,-1786.977,-1111.547,-22.1378,217.226,0,0
22.9287,-16404.43,1189.293,-1794.242,-1113.828,-28.48265,260.1893,0,0
22.99507,-16428.44,1167.92,-1788.506,-1115.572,-30.44829,208.1235,0,0
23.04484,-16424.68,1149.327,-1794.996,-1116.902,-32.09401,250.7087,0,0
23.06143,-16440.66,1152.847,-1817.492,-1113.48,-37.08339,254.8903,0,0
23.07803,-16393.06,1165.535,-1741.418,-1106.428,-53.19947,251.8226,0,0
23.12779,-16389.95,1195.181,-1729.65,-1105.477,-37.63285,239.3439,0,0
23.17758,-16402.07,1196.753,-1743.885,-1104.766,-28.58187,226.6216,0,0
23.21076,-16424.72,1155.781,-1793.508,-1099.809,-15.67342,287.9726,0,0
23.26053,-16422.13,1158.774,-1853.495,-1104.905,-35.56235,266.0398,0,0
23.26053,-16417.94,1175.482,-1799.427,-1113.253,-44.22845,224.9908,0,0
23.29372,-16435.81,1180.495,-1739.04,-1106.347,-32.64405,255.8197,0,0
23.34349,-16441.72,1192.052,-1788.073,-1101.071,-4.193426,305.8884,0,0
23.36008,-16417.41,1178.683,-1834.361,-1097.054,-24.92847,291.9227,0,0
23.37668,-16415.44,1151.802,-1858.505,-1098.441,-57.23396,286.0244,0,0
23.42645,-16431.69,1130.151,-1876.725,-1108.392,-94.43989,289.9283,0,0
23.44304,-16387.62,1198.962,-1779.602,-1111.582,-85.73499,253.1481,0,0
23.526,-16424.88,1240.492,-1797.135,-1109.587,-32.20831,320.1881,0,0
23.54259,-16431.25,1234.452,-1838.168,-1108.059,16.45776,340.5545,0,0
23.55919,-16436.11,1166.531,-1903.75,-1115.753,0.9151909,349.2421,0,0
23.55919,-16418.77,1181.012,-1859.478,-1112.766,2.446964,331.81,0,0
23.62555,-16462,1168.82,-1837.563,-1110.472,-36.67204,406.8768,0,0
23.65873,-16423.01,1196.056,-1807.35,-1108.713,33.04367,398.341,0,0
23.65873,-16414.22,1230.152,-1852.842,-1116.231,86.78133,541.5775,0,0
23.7085,-16425.24,1232.866,-1865.355,-1108.678,140.3539,555.3248,0,0
23.74169,-16404.88,1241.462,-1822.684,-1116.191,202.2757,637.4824,0,0
23.74169,-16450.28,1122.719,-1861.947,-1117.498,275.7291,730.8738,0,0
23.84124,-16451.74,1142.726,-2024.785,-1114.051,276.9984,756.5287,0,0
23.87442,-16449.48,1126.011,-2120.126,-1111.403,215.0005,662.1821,0,0
23.89101,-16444.38,1155.436,-2076.073,-1109.374,226.6017,613.5982,0,0
23.94079,-16418.28,1165.83,-2130.376,-1103.393,263.8144,692.9886,0,0
23.94079,-16426.02,1160.517,-2173.484,-1107.694,297.5887,645.8803,0,0
23.99056,-16412.02,1124.356,-2206.849,-1110.993,297.9384,661.0344,0,0
24.00715,-16396.9,1075.737,-2294.753,-1104.655,281.5891,711.1183,0,0
24.07352,-16398.7,1104.097,-2334.521,-1099.816,267.4785,682.6191,0,0
24.07352,-16395.71,1101.586,-2295.292,-1100.565,265.6667,663.0142,0,0
24.12366,-16385.74,1102.024,-2354.142,-1110.023,279.9469,710.1185,0,0
24.14025,-16378.19,1115.788,-2406.018,-1103.968,268.5943,648.9694,0,0
24.15685,-16384.71,1083.218,-2455.809,-1108.206,236.5567,602.5944,0,0
24.20673,-16326.63,1096.111,-2515.017,-1111.453,212.5946,569.6021,0,0
24.20673,-16301.2,1081.739,-2515.996,-1109.501,176.8855,439.7691,0,0
24.25655,-16294.19,1073.104,-2460.265,-1099.142,189.0522,424.9838,0,0
24.28977,-16334.5,1108.755,-2542.984,-1095.665,202.6808,372.5805,0,0
24.30638,-16338.94,1045.285,-2501.144,-1101.895,203.8324,376.2346,0,0
24.32298,-16345.79,1009.091,-2533.582,-1097.816,189.3428,528.3048,0,0
24.3728,-16364.45,1023.767,-2537.564,-1094.715,203.9077,508.6573,0,0
24.38941,-16365.5,1029.707,-2545.28,-1096.801,207.7331,582.7401,0,0
24.42239,-16387.41,1030.037,-2604.628,-1089.558,181.4542,638.1326,0,0
24.47242,-16368.73,978.425,-2680.152,-1097.344,128.3167,633.675,0,0
24.48902,-16300.2,1010.118,-2656.048,-1112.185,126.7505,593.9442,0,0
24.50563,-16323.25,1050.114,-2700.896,-1114.668,166.3338,690.1641,0,0
24.57206,-16345.48,1019.923,-2791.842,-1116.545,153.4108,699.7211,0,0
24.60528,-16310.51,1011.385,-2823.759,-1122.387,136.3199,596.9474,0,0
24.60528,-16267.27,992.8499,-2822.655,-1122.39,144.327,644.1157,0,0
24.6551,-16255.46,995.497,-2861.693,-1122.355,152.9743,599.3845,0,0
24.68832,-16251.12,964.493,-2913.713,-1117.862,179.2608,644.4847,0,0
24.70493,-16279.07,952.0972,-2974.504,-1114.4,215.6677,634.7483,0,0
24.78796,-16281.82,916.2988,-2988.76,-1111.736,251.7091,621.0024,0,0
24.83778,-16279.66,918.0408,-3067.122,-1105.259,250.2814,594.8137,0,0
24.85439,-16294.78,915.2696,-3046.008,-1104.741,237.0737,531.7502,0,0
24.88709,-16295.39,883.5515,-3112.806,-1108.787,207.1342,473.8404,0,0
24.90353,-16280.46,858.5296,-3111.675,-1111.885,206.283,480.6628,0,0
24.9203,-16278.03,840.8893,-3120.645,-1114.25,177.3062,450.8909,0,0
24.97006,-16286.27,883.2026,-3141.827,-1120.48,133.5136,434.4255,0,0
24.97006,-16247.26,907.0449,-3092.616,-1120.793,147.1648,460.8549,0,0
25.01986,-16239.75,902.2689,-3203.493,-1125.438,117.7995,377.6982,0,0
25.01986,-16254.14,870.0394,-3210.748,-1120.097,66.08723,323.2614,0,0
25.05305,-16226.53,877.7818,-3208.503,-1107.125,64.6787,308.9255,0,0
25.10257,-16253.25,882.8617,-3267.737,-1114.928,91.80698,349.3968,0,0
25.10257,-16226.2,880.3373,-3280.908,-1116.464,98.33472,336.716,0,0
25.15263,-16215.66,837.6415,-3318.666,-1117.629,102.3581,339.5677,0,0
25.18583,-16218.88,817.4501,-3360.82,-1118.508,96.69232,309.6957,0,0
25.23562,-16233.71,803.4424,-3343.161,-1110.304,86.938,263.4044,0,0
25.23562,-16240.78,799.723,-3325.231,-1104.028,77.39284,367.7531,0,0
25.26882,-16245.21,831.5649,-3262.884,-1099.244,89.90191,380.0114,0,0
25.33521,-16222.11,844.0132,-3267.541,-1095.61,153.6015,408.4015,0,0
25.33521,-16228.94,860.4011,-3366.739,-1101.728,159.9605,443.8044,0,0
25.3518,-16236.52,852.0596,-3420.705,-1106.434,163.9442,385.3392,0,0
25.3518,-16249.07,829.2252,-3434.423,-1105.614,137.0226,385.0284,0,0
25.41819,-16259.85,828.5726,-3383.005,-1100.565,139.1252,367.7556,0,0
25.46799,-16250.42,786.1804,-3398.209,-1092.29,137.1357,389.8724,0,0
25.46799,-16236.6,775.0626,-3383.566,-1094.856,150.2964,382.82,0,0
25.51778,-16201.74,764.6376,-3376.058,-1092.421,160.9015,452.0384,0,0
25.55097,-16198.47,746.9963,-3468.237,-1090.592,167.5873,417.1925,0,0
25.55097,-16209.43,728.2854,-3524.674,-1098.092,149.1029,354.8175,0,0
25.60077,-16175.85,737.5841,-3502.698,-1103.853,169.276,345.179,0,0
25.65056,-16168.06,709.5737,-3564.802,-1099.405,170.2586,357.9317,0,0
25.65056,-16162.31,763.8253,-3547.168,-1096.013,150.7322,343.199,0,0
25.73355,-16180.27,804.4764,-3480.76,-1102.299,209.7154,365.6073,0,0
25.78334,-16197.5,793.6162,-3479.127,-1098.255,266.6365,462.9189,0,0
25.83313,-16210.8,735.5791,-3625.728,-1099.604,245.6902,514.0433,0,0
25.83313,-16191.14,725.7426,-3725.991,-1096.216,149.9542,419.1842,0,0
25.86633,-16164.01,753.9299,-3636.6,-1098.071,140.375,296.1469,0,0
25.86633,-16189.94,749.1127,-3659.278,-1099.503,118.9637,268.9765,0,0
25.91612,-16179.98,743.3969,-3693.534,-1096.177,75.24709,259.5918,0,0
25.96591,-16159.17,803.4644,-3609.223,-1093.646,82.40302,73.84021,0,0
25.96591,-16189.93,769.7338,-3602.762,-1091.729,92.20335,157.5394,0,0
25.99911,-16144.87,734.0522,-3624.94,-1090.285,95.13346,227.4148,0,0
26.0489,-16128.28,721.3268,-3748.789,-1098.069,85.86487,174.0681,0,0
26.0489,-16167.85,719.5514,-3718.694,-1095.172,42.34549,117.5959,0,0
26.13189,-16170.56,727.2604,-3659.468,-1097.399,28.64046,207.0094,0,0
26.14849,-16172.73,727.8004,-3680.036,-1094.679,35.01434,232.5737,0,0
26.18168,-16170.04,766.0444,-3693,-1097.041,34.02342,170.9519,0,0
26.18168,-16192.43,735.5714,-3682.418,-1103.287,26.82942,176.7504,0,0
26.23147,-16178.58,758.8999,-3728.086,-1112.492,77.75903,203.6736,0,0
26.28126,-16213.46,744.7072,-3691.563,-1119.511,53.41756,243.3665,0,0
26.28126,-16201.36,772.7138,-3627.676,-1120.409,80.05947,223.4911,0,0
26.33106,-16196.53,739.9045,-3685.921,-1121.052,92.21658,262.7319,0,0
26.36425,-16189.52,741.4748,-3668.067,-1112.638,75.80225,251.5864,0,0
26.36425,-16187.5,761.6053,-3666.231,-1097.312,71.89,261.7041,0,0
26.46383,-16202.61,797.0019,-3665.607,-1098.887,75.06333,284.1963,0,0
26.46383,-16196.45,811.8749,-3717.997,-1095.673,69.52576,292.8425,0,0
26.49703,-16196.17,802.1377,-3666.858,-1102.094,81.97655,277.8492,0,0
26.54682,-16215.9,785.7699,-3660.665,-1098.15,99.85873,262.2393,0,0
26.54682,-16181.13,795.3853,-3717.721,-1099.573,108.0074,277.7655,0,0
26.59661,-16196.64,778.3456,-3683.5,-1100.67,109.5149,255.8859,0,0
26.59661,-16207.42,784.1429,-3736.799,-1097.083,99.84218,221.756,0,0
26.62981,-16173.56,787.4715,-3735.14,-1103.212,119.8524,210.7263,0,0
26.6796,-16185.36,773.3926,-3750.139,-1103.472,91.64387,228.4805,0,0
26.6796,-16188.88,774.822,-3756.829,-1108.099,64.52641,213.1096,0,0
26.77918,-16163.91,788.1213,-3770.453,-1107.197,55.7556,188.4682,0,0
26.77918,-16195.83,833.7405,-3757.25,-1110.926,58.83329,198.5986,0,0
26.81238,-16180.38,824.2374,-3790.024,-1113.763,39.12102,199.8689,0,0
26.81238,-16157.51,804.683,-3788.152,-1115.91,18.61763,216.7762,0,0
26.86217,-16120.15,800.748,-3811.844,-1113.094,37.70794,238.6844,0,0
26.91196,-16132.71,796.5983,-3788.605,-1106.487,41.64009,274.3345,0,0
26.91196,-16129.16,770.1396,-3839.18,-1110.287,41.70454,311.8341,0,0
26.96176,-16107.74,768.7595,-3840.932,-1104.322,3.628954,285.8567,0,0
26.97835,-16154.66,774.3967,-3829.69,-1104.188,-0.4201809,285.5672,0,0
26.97835,-16134.15,787.6067,-3870.584,-1108.52,-4.172275,296.9194,0,0
27.04474,-16142.91,814.3366,-3850.511,-1107.398,-23.76118,269.5262,0,0
27.07794,-16147.48,811.4743,-3853.619,-1097.672,-17.22034,253.5243,0,0
27.09454,-16128.89,798.1497,-3822.422,-1099.106,-28.36498,247.668,0,0
27.11113,-16100.35,800.1127,-3854.783,-1104.649,-33.09475,245.1615,0,0
27.16092,-16099.71,832.6105,-3912.484,-1108.894,-58.3923,228.8835,0,0
27.19412,-16104.91,829.6993,-3907.489,-1107.704,-55.35447,205.4204,0,0
27.22731,-16094.63,828.4908,-3917.67,-1102.354,-79.93896,329.9382,0,0
27.26051,-16109.06,829.7016,-3889.618,-1098.265,-65.52973,418.4614,0,0
27.3098,-16135.73,818.365,-3909.926,-1099.582,-31.55999,433.2491,0,0
27.3098,-16128.49,824.0394,-3941.752,-1113.895,-30.89573,397.6564,0,0
27.35959,-16113.04,811.7098,-3903.687,-1115.97,-19.73863,342.1497,0,0
27.39274,-16128.99,807.783,-3921.891,-1113.101,2.188871,324.4399,0,0
27.40932,-16127.95,797.0073,-3948.812,-1110.886,-3.143707,304.7023,0,0
27.42591,-16119.45,835.2964,-3946.911,-1104.747,12.20429,292.6028,0,0
27.49226,-16113,864.5347,-3957.307,-1095.619,44.17924,310.4772,0,0
27.49226,-16113.67,846.8967,-3978.221,-1101.948,68.8686,350.4293,0,0
27.54202,-16062.19,829.9734,-3961.737,-1097.941,80.44702,401.1008,0,0
27.5752,-16091.64,750.4978,-3985.362,-1108.183,105.5068,403.0924,0,0
27.62496,-16107.66,699.7563,-3979.838,-1107.156,116.743,423.7633,0,0
27.62496,-16102.25,668.9135,-4045.083,-1106.364,87.19122,402.757,0,0
27.67472,-16125.89,685.4922,-4019.255,-1110.186,49.47722,350.181,0,0
27.7079,-16103,674.072,-3988.033,-1104.239,46.04523,334.498,0,0
27.72448,-16086.66,655.6273,-4074.634,-1099.688,39.51605,300.5774,0,0
27.75747,-16081.99,631.8327,-4138.264,-1096.218,28.13963,313.9811,0,0
27.79084,-16088.5,654.9408,-4152.055,-1098.013,-2.984061,351.6773,0,0
27.79084,-16090.25,642.9886,-4139.869,-1099.403,-4.566163,356.9247,0,0
27.85719,-16080.58,656.2716,-4095.669,-1100.479,18.13188,319.87,0,0
27.87377,-16082.13,650.0566,-4167.782,-1088.018,13.94208,328.8947,0,0
27.89036,-16071.23,637.7766,-4233.535,-1087.376,2.743118,323.8829,0,0
27.94013,-16078.49,638.5935,-4197.912,-1086.922,-17.12181,285.4261,0,0
27.9733,-16115.15,661.6088,-4155.688,-1091.042,-27.79243,283.489,0,0
27.98989,-16111.09,652.8102,-4187.193,-1094.22,-36.38885,255.7859,0,0
28.07283,-16111.31,652.8976,-4203.095,-1101.1,-50.03059,253.2808,0,0
28.10599,-16112.58,656.4554,-4229.194,-1097.504,-42.03146,272.5597,0,0
28.10599,-16098.05,641.6046,-4292.975,-1094.757,-40.4772,250.3047,0,0
28.15576,-16073.66,627.0865,-4274.707,-1105.961,-50.51593,228.9752,0,0
28.17235,-16059.5,629.4652,-4261.268,-1101.231,-24.27148,248.2781,0,0
28.20536,-16069.83,629.2554,-4228.327,-1102.038,-5.211323,314.7001,0,0
28.25529,-16030.19,639.2396,-4221.546,-1102.652,-0.8408747,430.0527,0,0
28.25529,-16034.35,672.5053,-4141.78,-1098.686,65.38522,423.3523,0,0
28.28846,-16031.05,680.3062,-4214.605,-1095.653,90.19151,436.5025,0,0
28.33859,-16027.57,622.0593,-4290,-1084.479,67.99971,391.4443,0,0
28.33859,-16026.17,629.6962,-4300.732,-1080.393,41.45784,331.2962,0,0
28.38836,-16005.31,634.5776,-4304.05,-1086.17,20.79501,287.4412,0,0
28.43814,-16034.94,620.7127,-4350.451,-1090.623,11.6101,268.6296,0,0
28.43814,-16059.96,644.5868,-4351.103,-1098.48,-14.24335,280.1114,0,0
28.48791,-16034.85,662.9504,-4348.878,-1100.062,-14.85676,252.9941,0,0
28.50451,-16015.72,650.4593,-4424.248,-1096.835,13.82369,177.271,0,0
28.52109,-16047.74,663.1138,-4384.952,-1089.935,-17.3923,100.2288,0,0
28.57086,-16057.92,681.6951,-4323.346,-1084.669,0.3209014,168.2948,0,0
28.62064,-16030.29,695.9062,-4342.319,-1089.528,-11.29243,202.9889,0,0
28.63723,-16014.77,690.1212,-4380.867,-1093.265,-24.56347,177.1352,0,0
28.63723,-16016.3,694.5213,-4352.354,-1096.132,-9.995332,160.3607,0,0
28.75336,-16039.75,706.7115,-4373.394,-1102.758,2.863073,181.3056,0,0
28.75336,-16098.74,548.6987,-4425.698,-1103.384,73.09316,60.74168,0,0
28.78654,-16057.42,626.3172,-4480.789,-1094.983,59.13362,56.43027,0,0
28.80313,-16077.85,664.8104,-4358.445,-1106.279,25.8955,50.82985,0,0
28.83631,-16056.91,655.5231,-4323.23,-1106.043,6.784225,42.84478,0,0
28.86942,-16055.29,630.7202,-4289.467,-1110.272,-4.232579,75.40086,0,0
28.88608,-16065.14,662.7781,-4314.51,-1109.049,-28.13587,88.49151,0,0
28.91926,-16058.28,679.5791,-4343.537,-1108.086,-50.77376,99.08987,0,0
28.96903,-16034.2,715.6762,-4284.71,-1111.758,-75.44078,94.44448,0,0
28.98561,-16034.67,732.1223,-4268.438,-1105.678,-71.97714,137.3914,0,0
29.06856,-16052.81,741.2435,-4293.653,-1105.441,-104.599,184.8139,0,0
29.06856,-16042.35,754.7131,-4306.26,-1100.815,-113.8245,207.8481,0,0
29.10174,-16031.05,774.8126,-4360.147,-1106.136,-102.6347,198.305,0,0
29.15151,-16029.11,757.8545,-4359.109,-1105.765,-89.14729,187.6603,0,0
29.15151,-16038.77,717.0054,-4345.94,-1105.47,-101.9164,186.7222,0,0
29.18469,-16000.79,711.1442,-4340.14,-1100.803,-125.3528,189.6178,1,0
29.23446,-16000.63,689.9938,-4357.73,-1101.662,-129.4936,195.718,1,0
29.25105,-15998.42,718.1187,-4382.118,-1102.319,-152.9282,176.2852,1,0
29.30082,-16043.37,688.635,-4373.995,-1098.389,-165.6135,158.6737,1,0
29.38377,-16047.89,667.1808,-4378.675,-1095.387,-165.0681,157.4519,1,0
29.43354,-16043.58,715.0699,-4327.797,-1093.103,-162.164,160.1928,1,0
29.43354,-16032.54,725.0975,-4323.133,-1091.372,-156.645,187.5592,1,0
29.45014,-16034.08,733.8091,-4336.145,-1094.5,-123.3942,180.5381,1,0
29.45014,-16033.07,771.4071,-4383.71,-1101.34,-101.958,198.1625,1,0
29.5165,-16025.68,750.1694,-4384.507,-1106.573,-97.38084,215.2287,1,0
29.54967,-16013.42,721.6069,-4401.57,-1106.133,-81.90977,211.611,1,0
29.56627,-16019.6,721.8521,-4414.438,-1110.213,-89.4327,202.1385,1,0
29.59945,-16029.93,736.4023,-4411.889,-1104.451,-66.07866,182.9465,1,0
29.64922,-16037.86,727.5314,-4378.721,-1104.463,-72.31431,175.746,1,0
29.64922,-16053.91,736.202,-4389.773,-1100.033,-94.54374,178.0207,1,0
29.6824,-16036.25,717.297,-4426.91,-1101.075,-108.4719,184.7736,1,0
29.74876,-16022.74,705.0213,-4411.932,-1106.305,-119.3368,156.1648,1,0
29.74876,-16031.26,707.8219,-4364.852,-1105.867,-87.39975,157.5991,1,0
29.76534,-16042.24,727.6979,-4419.601,-1101.09,-83.14611,153.7807,1,0
29.81512,-16031.8,739.5526,-4402.639,-1093.003,-98.4389,150.9306,1,0
29.83171,-15997.24,743.0238,-4410.58,-1091.263,-93.21255,143.5625,1,0
29.8483,-16006.33,722.3466,-4393.265,-1089.954,-83.64453,135.2409,1,0
29.91466,-16012.24,737.5145,-4371.062,-1093.409,-82.96221,116.5107,1,0
29.91466,-15985.81,723.5957,-4389.484,-1087.208,-93.23971,125.8529,1,0
29.96443,-16008.88,712.921,-4436.756,-1086.921,-100.5297,111.24,1,0
29.98102,-16022.17,698.1097,-4429.571,-1095.593,-114.3788,86.89852,1,0
29.9976,-16012.42,721.1545,-4380.716,-1106.671,-110.5095,85.62263,1,0
30.06396,-16026.05,727.7084,-4386.486,-1110.702,-131.0288,86.21409,1,0
30.08055,-16020.97,726.0517,-4384.22,-1104.897,-110.3555,64.9598,1,0
30.14692,-16028.18,726.976,-4348.113,-1100.439,-118.2945,61.36121,1,0
30.14692,-16037.02,712.1509,-4336.033,-1101.456,-142.0328,67.12393,1,0
30.19669,-16016.08,717.4293,-4366.747,-1097.799,-142.9199,68.67419,1,0
30.22987,-16028.87,749.1658,-4335.986,-1099.434,-155.9483,25.44233,1,0
30.27964,-16039.77,734.6174,-4340.207,-1109.55,-209.544,6.450947,1,0
30.27964,-16027.03,709.0393,-4331.316,-1108.41,-286.0508,53.40953,1,0
30.32941,-16035.01,722.7143,-4348.961,-1103.086,-279.6768,72.6375,1,0
30.37918,-16048.86,718.7757,-4350.321,-1099.004,-314.5677,14.07923,1,0
30.41236,-16041.69,673.665,-4332.56,-1104.745,-333.358,-13.34358,1,0
30.41236,-16049.46,662.4967,-4305.736,-1104.7,-350.8785,-40.96934,1,0
30.46213,-16034.32,686.2008,-4282.004,-1104.657,-380.9818,19.36922,1,0
30.5119,-16038.23,699.9855,-4292.814,-1109.047,-399.3498,0.3918481,1,0
30.54508,-16058.93,747.1273,-4243.629,-1099.096,-372.4372,-47.98695,1,0
30.56167,-16062.53,764.3067,-4232.808,-1100.346,-343.9049,-31.81273,1,0
30.59485,-16045.28,769.5858,-4220.355,-1096.875,-315.6098,-10.02509,1,0
30.62803,-16044.23,777.9331,-4221.069,-1103.09,-297.5535,-5.60794,1,0
30.69439,-16050.06,807.4495,-4178.672,-1103.414,-297.3652,-5.927286,1,0
30.72757,-16050.05,835.3877,-4126.617,-1099.226,-316.1325,-42.28569,1,0
30.72757,-16037.83,794.4862,-4096.073,-1087.162,-308.9456,-67.94268,1,0
30.76075,-16051.73,791.826,-4087.586,-1095.684,-294.9324,-102.8062,1,0
30.77734,-16087.83,795.1974,-4032.836,-1093.358,-281.5529,-106.1563,1,0
30.82711,-16068.82,754.4432,-4049.115,-1100.456,-274.5149,-47.1694,1,0
30.86029,-16067.49,776.3851,-4054.347,-1101.459,-290.9117,-87.94883,1,0
30.87688,-16060.88,793.1082,-4037.786,-1097.791,-274.2596,-76.80392,1,0
30.95984,-16105.62,785.8591,-4043.324,-1090.558,-291.0625,-123.1524,1,0
30.99284,-16116.48,758.0627,-3977.118,-1080.61,-275.8403,-127.2942,1,0
30.99284,-16123.52,764.4556,-4035.574,-1081.9,-283.7749,-49.82966,1,0
31.04279,-16132.07,826.9236,-4074.1,-1091.789,-349.8607,-164.3227,1,0
31.09256,-16118.49,874.5756,-3984.256,-1099.375,-357.0178,-251.0521,1,0
31.09256,-16107.95,903.0254,-3902.664,-1096.315,-321.5423,-178.6934,1,0
31.14232,-16137.45,870.1923,-3879.625,-1093.975,-307.8035,-152.2809,1,0
31.1755,-16149.89,880.2641,-3848.263,-1096.622,-314.3495,-162.5169,1,0
31.1755,-16151.48,915.4227,-3821.642,-1098.649,-319.5239,-194.4361,1,0
31.22528,-16163.58,871.1257,-3840.771,-1091.335,-350.2294,-154.8277,1,0
31.27505,-16157.14,851.414,-3833.915,-1099.042,-402.0795,-163.8674,1,0
31.32482,-16132.1,888.2501,-3832.622,-1096.076,-439.2655,-188.5463,1,0
31.358,-16171.53,953.9034,-3871.006,-1093.806,-477.8915,-163.1179,1,0
31.358,-16177.15,1010.459,-3851.021,-1100.938,-475.1754,-190.2392,1,0
31.40777,-16161.33,1057.72,-3869.451,-1097.526,-455.7903,-239.2662,1,0
31.44095,-16147.95,1040.171,-3806.441,-1090.482,-445.8669,-229.6338,1,0
31.44095,-16181.91,1019.599,-3752.1,-1093.965,-431.876,-212.2411,1,0
31.49072,-16196.66,1018.944,-3779.825,-1096.639,-428.3911,-181.7649,1,0
31.54049,-16157.89,1114.434,-3740.673,-1094.254,-453.1902,-204.5028,1,0
31.54049,-16161.34,1124.92,-3598.308,-1092.433,-428.9774,-195.3811,1,0
31.57367,-16168.3,1106.885,-3566.654,-1099.911,-383.0955,-225.5975,1,0
31.62344,-16181.27,1077.057,-3490.18,-1096.765,-332.3737,-216.0818,1,0
31.67321,-16223.19,1026.113,-3535.718,-1098.786,-307.9819,-101.403,1,0
31.70639,-16251.73,1010.102,-3574.811,-1095.897,-354.7653,-48.83857,1,0
31.72298,-16235.63,1006.492,-3589.992,-1098.118,-382.2614,-18.47614,1,0
31.75616,-16234.15,1061.141,-3472.682,-1099.814,-402.1259,-127.5876,1,0
31.77275,-16219.5,1092.703,-3343.898,-1092.242,-366.8067,-142.7075,1,0
31.80593,-16242.46,1075.511,-3356.136,-1099.749,-329.2055,-83.8849,1,0
31.85388,-16219.94,1070.902,-3424.192,-1096.627,-337.3069,-119.2492,1,0
31.85388,-16236.89,1072.631,-3440.604,-1098.668,-346.5919,-212.5186,1,0
31.90547,-16269.63,1106.921,-3350.916,-1091.363,-336.2649,-279.5584,1,0
31.98842,-16282.26,1138.381,-3259.919,-1090.214,-318.1455,-277.0701,1,0
31.98842,-16290.56,1095.61,-3263.357,-1089.349,-309.8871,-128.8691,1,0
32.0216,-16280.03,1110.228,-3337.924,-1101.996,-308.9173,-164.6979,1,0
32.03819,-16252.9,1087.9,-3270.639,-1102.803,-315.4645,-171.3025,1,0
32.08749,-16266.32,1120.435,-3234.436,-1094.542,-336.0553,-203.4306,1,0
32.10408,-16258.7,1161.681,-3119.043,-1101.515,-318.0492,-206.5628,1,0
32.17044,-16272.65,1160.771,-3143.747,-1102.411,-304.8735,-184.4472,1,0
32.17044,-16308.64,1119.85,-3151.525,-1107.515,-285.7311,-178.2326,1,0
32.22021,-16297.17,1104.906,-3125.218,-1102.535,-280.6167,-131.869,1,0
32.30316,-16307.02,1128.736,-3110.486,-1103.141,-296.7725,-165.1036,1,0
32.30316,-16320.99,1081.395,-3030.374,-1103.593,-293.7195,-89.43324,1,0
32.33634,-16291.56,1094.898,-3029.951,-1112.788,-270.9756,18.48464,1,0
32.4027,-16309.86,1113.972,-3042.85,-1106.501,-253.1442,1.569558,1,0
32.4027,-16305.95,1156.108,-3055.89,-1110.532,-233.8469,27.88547,1,0
32.43588,-16306.11,1191.438,-3077.818,-1109.162,-214.0173,-56.20144,1,0
32.43588,-16313.83,1155.019,-2987.916,-1108.092,-197.1389,-57.60071,1,0
32.48565,-16307.38,1132.451,-2983.158,-1102.823,-202.2105,-0.6593349,1,0
32.51883,-16304.51,1121.663,-3009.213,-1103.217,-261.1734,-36.54176,1,0
32.51883,-16298.85,1113.282,-2946.86,-1099.082,-283.4237,-32.34095,1,0
32.61837,-16272.26,1126.711,-2952.071,-1104.784,-337.6039,-43.69978,1,0
32.66814,-16311.67,1090.344,-2880.448,-1100.279,-381.2064,-145.3131,1,0
32.66814,-16338.39,898.5154,-2636.014,-1101.263,-594.6912,135.0919,1,0
32.70132,-16270.04,1202.939,-2770.485,-1102.017,-593.2306,319.0487,1,0
32.71776,-16245.38,1152.12,-2802.518,-1093.731,-466.5562,135.1811,1,0
32.7345,-16270.86,1168.418,-2818.014,-1100.697,-391.1277,117.1622,1,0
32.80086,-16249.35,1188.445,-2768.693,-1097.17,-297.5286,45.076,1,0
32.80086,-16281.67,1230.122,-2776.161,-1090.047,-257.5445,110.9721,1,0
32.85063,-16269.8,1276.107,-2803.779,-1097.912,-188.91,80.75534,1,0
32.85063,-16270.67,1264.369,-2810.155,-1095.077,-96.82831,122.1596,1,0
32.88364,-16289.05,1248.366,-2953.086,-1088.487,-41.55167,143.5433,1,0
32.93358,-16268.72,1210.322,-3001.904,-1096.761,-27.01991,92.51404,1,0
32.96676,-16266.43,1187.636,-3018.407,-1103.102,-51.99307,57.91127,1,0
32.98335,-16290.17,1176.775,-2993.5,-1090.223,-97.42614,-10.82312,1,0
33.03312,-16286.12,1130.689,-2924.754,-1102.539,-103.5501,31.84715,1,0
33.04971,-16286.3,1146.372,-2947.774,-1098.666,-113.8794,35.91927,1,0
33.11607,-16317.42,1119.58,-2982.274,-1095.702,-168.0951,-16.70983,1,0
33.11607,-16304.57,1112.398,-2962.322,-1102.302,-236.1035,-8.491616,1,0
33.16569,-16291.33,1124.677,-2952.781,-1094.053,-318.6554,44.35619,1,0
33.19902,-16332.11,1158.472,-2900.266,-1101.043,-398.2987,-68.15541,1,0
33.24879,-16354.33,1164.347,-2747.382,-1093.095,-432.6085,-110.9276,1,0
33.24879,-16352.34,1207.549,-2716.289,-1087.023,-349.0598,-81.92977,1,0
33.28197,-16376.12,1177.313,-2769.623,-1091.264,-288.2088,23.81747,1,0
33.34832,-16399.66,1178.446,-2741.208,-1090.095,-249.6012,-24.62854,1,0
33.34832,-16391.94,1188.089,-2716.704,-1093.649,-233.3816,3.676717,1,0
33.3815,-16355.9,1154.38,-2684.142,-1091.947,-204.9834,78.49479,1,0
33.41468,-16319.31,1139.63,-2772.852,-1090.656,-226.3134,117.5749,1,0
33.48104,-16289.05,1153.832,-2675.005,-1089.681,-274.0294,-33.63808,1,0
33.48104,-16276.99,1182.415,-2618.418,-1097.813,-279.2398,24.86916,1,0
33.51423,-16295.52,1180.953,-2616.789,-1095.172,-238.8763,31.94658,1,0
33.51423,-16344.07,1181.973,-2605.138,-1106.446,-216.8899,25.38719,1,0
33.58059,-16308.04,1174.926,-2615.714,-1097.328,-186.0369,58.53382,1,0
33.59718,-16310.35,1178.339,-2664.295,-1094.776,-185.2966,52.76939,1,0
33.64695,-16282.2,1139.905,-2676.467,-1097.258,-185.1726,64.31338,1,0
33.66354,-16320.52,1133.777,-2645.198,-1094.725,-209.3293,43.11486,1,0
33.69672,-16356.47,1122.487,-2639.431,-1101.652,-233.4557,6.04238,1,0
33.74649,-16327.38,1103.945,-2583.388,-1093.65,-222.8778,-9.304731,1,0
33.77967,-16356.01,1124.202,-2617.464,-1100.824,-280.4677,21.09829,1,0
33.77967,-16393.34,1154.173,-2513.271,-1093.014,-267.1474,23.31163,1,0
33.84603,-16375.2,1184.86,-2507.267,-1100.336,-258.0046,95.05302,1,0
33.86262,-16351.2,1200.514,-2517.708,-1097.071,-244.3306,91.08014,1,0
33.86262,-16358.23,1257.801,-2507.448,-1103.432,-240.7916,127.471,1,0
33.91239,-16349.12,1227.192,-2492.406,-1112.719,-214.5562,52.33829,1,0
33.96201,-16358.7,1217.993,-2539.068,-1106.499,-195.3755,169.5101,1,0
33.96201,-16348.24,1258.454,-2581.875,-1097.285,-154.4966,102.9733,1,0
34.01193,-16337.96,1231.607,-2545.165,-1094.665,-136.975,133.5726,1,0
34.0617,-16352.21,1172.133,-2581.684,-1101.529,-128.7825,124.1034,1,0
34.11147,-16307.69,1205.253,-2536.799,-1102.346,-139.9253,97.55936,1,0
34.14465,-16329.04,1201.735,-2496.144,-1107.394,-117.9204,80.72441,1,0
34.16124,-16359.78,1202.303,-2466.558,-1097.944,-98.54732,120.6672,1,0
34.17733,-16354.45,1201.571,-2454.356,-1099.574,-76.79057,175.1902,1,0
34.24369,-16348.09,1155.535,-2520.828,-1096.39,-115.8359,188.9666,1,0
34.29345,-16328.78,1166.871,-2527.712,-1098.389,-155.6299,158.2323,1,0
34.29345,-16317.33,1215.46,-2484.506,-1104.352,-183.4284,183.792,1,0
34.32663,-16306.38,1222.664,-2494.982,-1108.905,-161.5356,174.86,1,0
34.34302,-16323.54,1282.361,-2483.372,-1107.937,-130.171,131.5217,1,0
34.35981,-16302.35,1276.874,-2489.203,-1107.177,-66.42149,166.3644,1,0
34.42617,-16336.04,1232.58,-2578.15,-1093.284,-33.68541,223.8815,1,0
34.50912,-16379.55,1195.247,-2648.532,-1095.958,-61.03844,205.578,1,0
34.50912,-16396.12,1203.218,-2712.284,-1093.583,-120.7462,178.2999,1,0
34.59206,-16384.29,1284.633,-2550.36,-1091.781,-153.2813,108.5019,1,0
34.60865,-16376.22,1284.723,-2553.917,-1090.419,-136.1239,243.1151,1,0
34.64183,-16335.6,1279.053,-2565.63,-1089.397,-117.791,187.7357,1,0
34.64183,-16332.21,1262.35,-2603.494,-1084.205,-94.16657,169.5398,1,0
34.67501,-16404.96,1243.896,-2665.718,-1093.557,-54.63182,218.3636,1,0
34.6916,-16358.59,1246.307,-2698.811,-1091.864,-77.22274,122.8668,1,0
34.74137,-16347.43,1253.616,-2600.963,-1095.011,-120.1746,59.45638,1,0
34.75796,-16377.64,1272.416,-2536.035,-1097.426,-127.0922,157.0242,1,0
34.77455,-16389.62,1273.388,-2560.72,-1103.704,-120.7998,142.7564,1,0
34.82431,-16358.8,1272.9,-2498.86,-1095.202,-101.0819,135.6733,1,0
34.92385,-16352.91,1250.254,-2537.045,-1097.558,-71.95872,182.2999,1,0
34.92385,-16329.55,1256.121,-2516.576,-1090.499,-63.66965,120.665,1,0
34.95702,-16347.16,1247.253,-2504.412,-1093.972,-55.55759,174.5856,1,0
34.95702,-16356.22,1285.841,-2554.015,-1096.638,-41.49772,188.3514,1,0
35.00679,-16384.18,1231.063,-2604.257,-1098.679,-71.92725,194.6078,1,0
35.00679,-16333.5,1250.054,-2528.574,-1104.668,-88.97967,154.3948,1,0
35.03997,-16353.45,1301.114,-2531.688,-1104.804,-92.41852,146.0027,1,0
35.08974,-16387.55,1239.242,-2516.465,-1100.459,-70.74275,161.4438,1,0
35.08974,-16373.69,1252.793,-2583.612,-1097.124,-64.50375,163.2484,1,0
35.13951,-16377.42,1226.576,-2524.226,-1099.004,-107.2047,61.00032,1,0
35.18928,-16382.44,1186.591,-2492.171,-1100.44,-124.9567,109.195,1,0
35.22246,-16412.8,1200.41,-2555.335,-1105.965,-163.9975,123.7347,1,0
35.23904,-16502.38,1164.546,-2473.01,-1096.882,-186.2907,-30.44037,1,0
35.27222,-16375.66,1215.903,-2467.805,-1098.794,-181.0359,46.04769,1,0
35.3054,-16363.92,1220.918,-2521.651,-1104.687,-100.9809,91.79012,1,0
35.32199,-16402.56,1276.843,-2559.641,-1095.891,-138.3296,63.4662,1,0
35.37176,-16375.57,1242.003,-2522.252,-1098.025,-150.5472,95.92062,1,0
35.37176,-16360.43,1264.044,-2521.397,-1104.091,-149.8653,83.71103,1,0
35.42153,-16331.14,1268.658,-2460.997,-1108.723,-104.6925,239.78,1,0
35.45471,-16373.05,1247.735,-2512.452,-1103.383,-80.40044,247.9267,1,0
35.53765,-16378.54,1198.452,-2507.62,-1099.285,-53.59587,226.1693,1,0
35.55424,-16391.58,1189.608,-2574.909,-1096.148,-85.57768,168.8433,1,0
35.58743,-16368.27,1174.079,-2523.329,-1089.323,-134.2379,109.0802,1,0
35.63719,-16390.31,1166.757,-2453.975,-1097.414,-139.0508,116.2815,1,0
35.63719,-16384.98,1208.932,-2373.387,-1103.613,-125.7902,142.6103,1,0
35.67037,-16355.38,1226.863,-2491.539,-1095.054,-110.0802,201.5217,1,0
35.68696,-16320.57,1241.693,-2494.579,-1097.373,-116.9047,125.1648,1,0
35.72014,-16329.49,1230.85,-2473.721,-1094.72,-111.6095,124.6114,1,0
35.76991,-16333.08,1211.457,-2480.029,-1092.698,-95.66201,169.6373,1,0
35.76991,-16396.84,1183.347,-2531.487,-1091.164,-141.6638,135.9044,1,0
35.85286,-16313.75,1236.144,-2451.219,-1085.575,-129.4691,-79.90785,1,0
35.90263,-16317.83,1165.758,-2413.186,-1090.187,-84.10091,-20.02895,1,0
35.90263,-16394.17,1138.587,-2439.701,-1089.303,-92.09544,-56.91859,1,0
35.95239,-16360.6,1114.653,-2425.832,-1088.644,-114.3387,-34.89851,1,0
35.95239,-16380.31,1139.77,-2450.854,-1092.589,-114.2017,-77.24273,1,0
36.00168,-16343.3,1161.384,-2393.698,-1104.479,-112.161,-39.45243,1,0
36.08458,-16331.62,1186.902,-2424.409,-1104.701,-90.66528,24.13349,1,0
36.08458,-16364.85,1163.276,-2480.215,-1091.556,-94.20469,-10.95544,1,0
36.1675,-16398.04,1140.848,-2460.932,-1090.366,-177.0002,-58.10184,1,0
36.18409,-16394.55,1123.816,-2283.387,-1093.9,-183.7454,-112.7189,1,0
36.21726,-16405.11,1056.666,-2204.425,-1087.749,-117.0195,-21.72857,1,0
36.21726,-16389.83,1099.737,-2240.99,-1078.627,-100.5537,-28.30861,1,0
36.26701,-16374.75,1057.588,-2226.305,-1080.545,-71.9286,69.04099,1,0
36.28359,-16400.85,1062.165,-2263.227,-1073.185,-77.53991,105.3127,1,0
36.28359,-16357.61,1063.719,-2204.392,-1076.46,-91.34453,114.3975,1,0
36.34993,-16366.63,1062.94,-2255.143,-1079.006,-103.9072,136.4392,1,0
36.36652,-16364.69,1119.076,-2223.481,-1085.417,-106.9005,127.3691,1,0
36.39968,-16376.5,1143.315,-2236.229,-1085.908,-101.4505,183.4102,1,0
36.4826,-16351.18,1139.744,-2267.416,-1090.726,-111.9808,115.811,1,0
36.4826,-16357.32,1134.827,-2222.895,-1076.69,-85.9774,111.3026,1,0
36.53235,-16353.19,1128.89,-2283.342,-1083.7,-74.98952,172.2901,1,0
36.54894,-16355.59,1103.349,-2312.11,-1089.082,-101.0013,119.0556,1,0
36.5821,-16350.82,1110.492,-2204.654,-1093.203,-102.9332,89.5585,1,0
36.5821,-16372.68,1118.266,-2210.268,-1096.35,-109.1318,154.4738,1,0
36.63186,-16376.1,1095.481,-2303.534,-1098.743,-95.59515,172.1609,1,0
36.66502,-16351.01,1100.307,-2318.551,-1096.123,-127.355,94.10844,1,0
36.66502,-16362.85,1122.932,-2228.192,-1098.535,-114.5131,101.6383,1,0
36.71478,-16389.64,1134.756,-2189.188,-1095.932,-106.0494,146.4316,1,0
36.71478,-16397.92,1118.339,-2248.296,-1089.496,-102.6206,181.7098,1,0
36.74794,-16386.46,1149.02,-2298.175,-1093.435,-89.76121,162.544,1,0
36.81429,-16402.01,1134.818,-2245.588,-1092.015,-69.1568,172.0931,1,0
36.81429,-16403.87,1118.412,-2278.62,-1095.357,-59.83958,221.0626,1,0
36.83087,-16368.66,1084.847,-2328.377,-1093.476,-77.73779,170.7725,1,0
36.89721,-16363.86,1132.384,-2330.996,-1092.032,-93.16238,136.0082,1,0
36.89721,-16370.19,1141.091,-2280.9,-1099.787,-104.4374,70.57146,1,0
36.94696,-16382.79,1135.554,-2270.324,-1096.845,-105.8605,103.1116,1,0
36.98013,-16385.76,1172.299,-2297.781,-1099.012,-101.3989,61.3119,1,0
37.02988,-16415.71,1168.218,-2222.463,-1105.087,-102.6898,91.74739,1,0
37.02988,-16415.27,1162.801,-2245.873,-1100.847,-105.0591,153.042,1,0
37.06305,-16363.88,1194.044,-2231.818,-1102.014,-99.93997,128.6981,0,0
37.1128,-16397.68,1208.974,-2238.95,-1102.889,-111.5329,168.181,0,0
37.1128,-16375.88,1184.798,-2263.388,-1099.107,-119.2773,175.0203,0,0
37.16233,-16355.87,1186.135,-2262.238,-1087.339,-95.25491,206.1528,0,0
37.21231,-16389.35,1102.876,-2278.05,-1082.778,-117.8678,156.3947,0,0
37.26206,-16375.07,1104.598,-2240.341,-1083.745,-123.2367,142.8694,0,0
37.29523,-16371.89,1134.822,-2211.589,-1080.079,-122.038,188.696,0,0
37.29523,-16389.42,1144.696,-2231.854,-1090.597,-85.07447,225.5791,0,0
37.3284,-16427.18,1146.717,-2317.288,-1089.793,-88.94615,215.6534,0,0
37.37815,-16398.37,1124.996,-2322.798,-1089.184,-79.48411,188.2015,0,0
37.37815,-16392.89,1162.694,-2400.04,-1093.157,-70.08015,191.1638,0,0
37.42791,-16386.45,1103.998,-2334.837,-1096.197,-75.69524,95.5547,0,0
37.47766,-16348.27,1117.865,-2228.313,-1094.084,-70.63665,165.0972,0,0
37.52741,-16377.83,1141.835,-2292.027,-1092.462,-67.66125,145.4555,0,0
37.52741,-16372.78,1104.797,-2306.469,-1091.221,-42.46644,168.079,0,0
37.54399,-16404.38,1096.464,-2337.429,-1099.136,-47.94991,189.5,0,0
37.61034,-16381.99,1072.46,-2321.147,-1100.75,-66.10242,172.5641,0,0
37.61034,-16394.76,1124.025,-2283.136,-1101.967,-72.30433,176.4327,0,0
37.66009,-16436.63,1100.384,-2339.363,-1098.447,-70.99948,190.6862,0,0
37.70984,-16394.34,1089.007,-2380.094,-1100.172,-75.57964,155.2552,0,0
37.70984,-16373.01,1098.119,-2345.726,-1097.047,-61.6658,191.2661,0,0
37.75959,-16403.24,1114.031,-2331.492,-1090.216,-72.39595,162.2515,0,0
37.84252,-16374.27,1155.049,-2242.984,-1093.859,-85.35005,154.6977,0,0
37.84252,-16354.34,1142.075,-2246.262,-1092.218,-58.15492,224.5244,0,0
37.89227,-16341.36,1137.646,-2341.962,-1082.104,-57.88833,201.6656,0,0
37.92528,-16354.79,1149.742,-2334.269,-1069.958,-72.9759,170.7693,0,0
37.92528,-16382.86,1155.631,-2301.713,-1078.438,-68.76237,176.4481,0,0
37.97519,-16357.82,1143.463,-2279.006,-1080.532,-38.70092,215.3822,0,0
37.97519,-16363.07,1130.795,-2303.773,-1077.731,-45.96959,201.8656,0,0
38.00836,-16369.34,1116.667,-2285.069,-1084.479,-39.14848,197.2473,0,0
38.05811,-16339.83,1139.121,-2282.973,-1085.229,-20.16609,225.7683,0,0
38.0747,-16383.78,1146.324,-2305.784,-1081.382,-2.436206,210.6392,0,0
38.10786,-16391.94,1096.415,-2324.345,-1078.456,-7.57949,243.2775,0,0
38.19078,-16354.94,1140.264,-2294.188,-1080.672,-0.8584989,328.4817,0,0
38.24053,-16387.59,1081.868,-2420.669,-1086.818,-27.15776,304.4653,0,0
38.29029,-16361.61,1104.847,-2334.445,-1095.959,-29.09536,197.7268,0,0
38.32346,-16369.44,1113.635,-2315.995,-1094.076,-18.18631,299.3298,0,0
38.42296,-16353.29,1099.348,-2327.333,-1083.759,-9.925449,277.7278,0,0
38.47271,-16352.06,1084.042,-2359.237,-1075.871,-19.21607,271.8031,0,0
38.52247,-16312.4,1053.585,-2394.629,-1078.723,-22.25422,265.1672,0,0
38.55564,-16341.99,1092.466,-2369.469,-1076.497,-24.92452,253.3032,0,0
38.60539,-16348.1,1082.418,-2305.771,-1079.25,-2.377435,267.3826,0,0
38.63856,-16331.77,1110.257,-2251.493,-1072.513,47.18274,390.4772,0,0
38.72134,-16368.1,1081.734,-2266.595,-1080.68,84.0808,516.1663,0,0
38.77124,-16389.25,1052.218,-2248.365,-1082.514,128.6561,616.4251,0,0
38.82099,-16355.55,1057.458,-2349.774,-1092.788,153.2637,744.0941,0,0
38.85416,-16371.86,1047.193,-2458.345,-1091.773,170.8538,829.906,0,0
38.90392,-16353.32,1049.445,-2563.287,-1090.981,161.7269,824.5375,0,0
38.95367,-16321.42,1044.651,-2647.494,-1081.5,170.6853,738.0815,0,0
39.03659,-16332.56,1028.927,-2687.963,-1087.545,176.3213,697.8205,0,0
39.08634,-16328.97,988.2473,-2722.58,-1083.307,169.7285,666.4907,0,0
39.11951,-16332.94,986.152,-2749.357,-1084.5,153.5322,624.6692,0,0
39.16926,-16323.86,973.7108,-2793.378,-1085.417,147.7652,589.9059,0,0
39.21901,-16310.35,979.9514,-2819.526,-1086.119,165.5231,611.341,0,0
39.26877,-16312.29,943.9691,-2884.045,-1082.225,169.4167,612.9111,0,0
39.30194,-16291.72,954.384,-2915.805,-1088.114,147.4688,573.258,0,0
39.40144,-16283.86,980.343,-2918.032,-1088.186,128.789,508.528,0,0
39.43461,-16292.4,951.6597,-2908.777,-1097.097,130.1158,469.6335,0,0
39.50095,-16313.47,929.9382,-2869.759,-1095.031,123.78,457.5446,0,0
39.53411,-16297.53,886.9983,-2870.132,-1097.86,133.4797,505.3383,0,0
39.58386,-16290.97,930.9239,-2902.924,-1091.138,151.8413,463.9951,0,0
39.63361,-16287.17,918.2708,-2890.711,-1081.552,180.1232,501.566,0,0
39.71654,-16286.59,907.7324,-3010.279,-1087.519,178.8322,552.1136,0,0
39.76629,-16276.28,872.2365,-3113.079,-1087.657,153.252,510.8419,0,0
39.79946,-16237.49,877.5216,-3162.967,-1092.193,130.195,507.6624,0,0
39.84921,-16270.04,910.6778,-3129.08,-1082.362,128.7964,497.1057,0,0
39.88239,-16279.58,899.7184,-3085.476,-1079.278,127.3725,459.8821,0,0
39.98189,-16247.1,897.0908,-3133.189,-1081.367,122.6134,451.629,0,0
40.01506,-16255.62,911.9145,-3101.203,-1082.979,110.6075,377.5056,0,0
40.06473,-16275.58,856.9679,-3134.612,-1079.792,119.9486,453.632,0,0
40.11456,-16252.17,855.0688,-3233.568,-1081.798,133.4282,437.174,0,0
40.16431,-16269.83,871.6199,-3265.097,-1070.051,103.519,399.4364,0,0
40.21407,-16266.81,865.686,-3258.276,-1078.818,103.0534,469.5652,0,0
40.24724,-16238,851.3992,-3289.74,-1081.114,122.9179,467.2959,0,0
40.34675,-16209.44,842.9238,-3260.766,-1078.45,166.8873,536.1652,0,0
40.42967,-16203.29,856.6293,-3320.792,-1076.424,145.2953,521.1435,0,0
40.47942,-16191.04,823.0193,-3373.541,-1083.753,129.23,472.1201,0,0
40.52918,-16178.57,799.7761,-3419.538,-1089.365,127.4096,496.8882,0,0
40.57893,-16171.47,803.3431,-3425.972,-1084.786,172.7838,515.2318,0,0
40.66186,-16164.08,774.2379,-3489.674,-1090.14,215.6929,649.3672,0,0
40.74478,-16160.88,741.217,-3600.458,-1089.794,230.5868,623.9797,0,0
40.79453,-16147.6,859.2422,-3646.281,-1089.516,274.9666,613.0668,0,0
40.84428,-16142.13,862.1965,-3709.906,-1093.723,248.5,595.2801,0,0
40.87745,-16160.36,821.3411,-3802.596,-1092.492,179.7778,498.3424,0,0
40.92721,-16168.98,769.1891,-3755.662,-1091.533,181.9047,579.4976,0,0
41.02672,-16169.11,708.5013,-3788.13,-1086.353,167.3809,519.5961,0,0
41.05989,-16145,713.4128,-3837.083,-1082.387,137.1006,455.4204,0,0
41.10964,-16167.74,669.9236,-3845.446,-1088.222,136.0962,434.1,0,0
41.15939,-16122.15,693.5899,-3916.951,-1079.39,128.1523,396.3401,0,0
41.19296,-16114.07,644.5201,-3938.116,-1081.506,143.4383,370.4447,0,0
41.2925,-16148.02,630.692,-3947.355,-1091.998,117.7589,411.0106,0,0
41.37545,-16140.94,576.2782,-3953.057,-1095.585,92.89962,402.3733,0,0
41.42522,-16117.95,586.1614,-3956.115,-1089.447,60.41511,393.737,0,0
41.47499,-16121.61,547.7335,-4022.574,-1080.308,44.31857,375.418,0,0
41.52476,-16151.19,555.4611,-4020.063,-1077.756,89.54126,381.8436,0,0
41.55794,-16182.81,494.3445,-4085.573,-1080.253,194.6129,440.1449,0,0
41.60771,-16133.93,527.9673,-4111.133,-1082.179,194.3171,415.8817,0,0
41.69067,-16097.75,538.7439,-4086.176,-1079.229,256.2581,451.9739,0,0
41.74044,-16074.71,548.5886,-4096.894,-1081.416,257.7036,422.2997,0,0
41.77362,-16103.85,510.0337,-4239.104,-1083.099,248.0132,446.4717,0,0
41.83998,-16046.58,503.1708,-4212.526,-1084.392,209.8938,446.1736,0,0
41.85658,-16014.11,529.425,-4231.882,-1085.382,257.5673,453.7254,0,0
41.92294,-16002.91,532.2037,-4335.181,-1090.57,214.6255,424.3411,0,0
41.97271,-16014.64,528.0565,-4329.759,-1098.959,155.8667,344.0344,0,0
42.05566,-16020.63,527.4578,-4398.492,-1100.918,112.2846,259.2651,0,0
42.10543,-16023.28,491.8919,-4369.932,-1089.089,85.96436,223.6095,0,0
42.17181,-16027.8,498.3012,-4429.869,-1084.456,103.6585,255.2534,0,0
42.18839,-16066.95,488.0695,-4343.69,-1089.777,72.74763,223.6669,0,0
42.23816,-16068.26,512.735,-4415.108,-1089.412,62.846,226.8031,0,0
42.32112,-16032.84,500.8969,-4364.479,-1075.833,25.28535,98.07719,0,0
42.38748,-16032.5,512.079,-4424.419,-1083.187,12.8748,112.6613,0,0
42.43725,-16016.92,535.3048,-4434.891,-1084.394,-4.636628,113.6599,0,0
42.47043,-16034.02,533.3408,-4439.647,-1085.322,-5.257516,141.33,0,0
42.52021,-16037.3,537.5624,-4481.063,-1077.172,-1.270547,172.1525,0,0
42.60316,-16036.64,555.3625,-4497.331,-1070.953,-50.83399,175.1002,0,0
42.63634,-16044.03,545.8425,-4392.445,-1075.088,-44.08874,179.9393,0,0
42.68612,-16040.94,540.8995,-4405.581,-1078.277,-17.52948,253.2168,0,0
42.75248,-16014.33,588.2089,-4410.5,-1080.732,37.96649,290.6342,0,0
42.80225,-16015.17,583.4601,-4483.378,-1078.189,63.4058,348.6863,0,0
42.81884,-16142.26,328.3777,-4532.826,-1080.686,149.6802,210.5302,0,0
42.91838,-16164.1,381.841,-4517.733,-1087.035,140.8058,148.1872,0,0
42.96815,-16125.24,399.9818,-4487.65,-1091.887,145.5151,136.828,0,0
43.01793,-16071.02,443.0741,-4537.044,-1082.289,118.5246,149.8347,0,0
43.0677,-16065,481.883,-4438.948,-1083.806,65.1177,143.5038,0,0
43.11748,-16042.72,544.9999,-4496.283,-1076.105,51.15854,184.6773,0,0
43.18384,-16008.04,573.3955,-4473.117,-1079.089,21.73662,157.144,0,0
43.23361,-15990.54,582.8918,-4490.319,-1076.953,15.15824,154.6027,0,0
43.28338,-15986.21,559.0651,-4506.292,-1079.764,5.306204,141.5551,0,0
43.41611,-15947.65,546.3418,-4492.51,-1081.923,7.6399,137.0969,0,0
43.44929,-15959.42,551.014,-4522.478,-1074.715,-12.00715,87.69814,0,0
43.51566,-15979.75,555.7003,-4572.605,-1082.509,-16.875,129.7271,0,0
43.54884,-15975.56,545.9848,-4540.591,-1088.475,-18.45796,127.2606,0,0
43.59861,-15957.03,529.6967,-4498.966,-1088.598,-37.19695,176.848,0,0
43.64838,-15965.22,519.4921,-4550.918,-1088.677,-47.15957,170.6134,0,0
43.73133,-15956.17,549.4167,-4535.945,-1088.724,-40.97506,198.3606,0,0
43.78111,-15978.23,510.2904,-4613.802,-1088.746,-23.83968,213.2817,0,0
43.81429,-15969.79,559.0765,-4567.604,-1075.458,-25.2362,201.727,0,0
43.86405,-15973.44,543.2269,-4558.388,-1087.458,-20.05683,193.4677,0,0
43.91382,-15986.33,534.4236,-4566.456,-1092.206,-33.40416,154.2383,0,0
43.94701,-16011.81,565.3778,-4554.526,-1091.39,-18.53956,127.9431,0,0
43.99678,-15967.09,594.5727,-4586.049,-1086.316,-32.52252,88.61919,0,0
44.04655,-15997.24,607.9523,-4599.827,-1082.427,-16.22329,55.74178,0,0
44.1295,-16019.26,612.52,-4560.125,-1079.454,-32.17402,59.15848,0,0
44.17927,-15991.81,558.2704,-4537.197,-1072.758,-17.11855,83.4145,0,0
44.22904,-16005.2,567.6864,-4454.067,-1067.658,-29.04677,115.2434,0,0
44.26222,-16001.08,551.6058,-4450.234,-1063.791,-36.13313,136.7187,0,0
44.31199,-16010.14,553.7075,-4448.412,-1074.168,-49.47156,183.7181,0,0
44.41187,-15970.57,575.2648,-4453.673,-1082.131,-63.97175,159.8582,0,0
44.44506,-15968.06,569.5707,-4470.992,-1088.226,-47.48567,184.5488,0,0
44.49496,-15961.82,527.5173,-4500.825,-1088.446,-33.07869,165.207,0,0
44.52818,-15990.39,520.8699,-4483.675,-1084.166,-41.90689,165.095,0,0
44.578,-16020.06,549.0992,-4490.418,-1080.884,-51.89261,147.3032,0,0
44.62782,-16039.43,545.2479,-4554.217,-1078.374,-55.26867,155.8961,0,0
44.67765,-16001,533.4581,-4544.128,-1076.461,-48.59703,166.9431,0,0
44.7607,-16022.56,546.6352,-4604.898,-1079.44,-96.01447,88.16994,0,0
44.81052,-16009.12,588.8656,-4544.758,-1081.726,-95.83892,58.23601,0,0
44.86034,-15993.29,567.9399,-4507.41,-1092.338,-84.98978,67.69698,0,0
44.91017,-15997.83,591.766,-4472.102,-1100.438,-95.36118,85.68356,0,0
44.94339,-16000.22,611.0303,-4480.539,-1102.165,-86.79214,80.78644,0,0
44.99322,-15969.94,602.3892,-4488.11,-1103.442,-88.95293,106.0056,0,0
45.07626,-15971.22,598.9958,-4508.292,-1091.08,-84.09985,98.2712,0,0
45.12556,-15954.55,608.4968,-4499.311,-1090.464,-75.55719,124.0312,0,0
45.17539,-15933.04,623.422,-4489.072,-1089.98,-74.18658,144.9058,0,0
45.22512,-15964.37,616.9913,-4513.347,-1085.168,-60.31409,161.1567,0,0
45.2583,-15966.28,610.8482,-4489.769,-1085.917,-78.72621,152.5041,0,0
45.30808,-15976.67,633.7492,-4553.683,-1086.491,-63.38059,159.425,0,0
45.35786,-15981.35,617.9104,-4545.964,-1078.066,-91.46595,166.3466,0,0
45.44082,-15991.6,620.0897,-4580.91,-1071.635,-98.45958,150.8213,0,0
45.4906,-15997.24,629.4188,-4536.559,-1080.037,-111.7259,145.2897,0,0
45.54037,-15983.81,625.3727,-4523.557,-1073.188,-114.2611,167.9185,0,0
45.57355,-16001.25,644.3353,-4485.85,-1081.264,-107.1969,183.8069,0,0
45.65652,-15995.75,612.1919,-4510.189,-1078.592,-100.5618,175.6666,0,0
45.70629,-16033.62,619.6549,-4461.228,-1080.99,-115.6029,178.7858,0,0
45.75607,-16009.35,586.53,-4448.204,-1082.832,-107.3299,197.1693,0,0
45.80584,-16018.43,611.0338,-4398.471,-1088.674,-100.8957,196.4592,0,0
45.85562,-16023.11,597.6271,-4440.385,-1093.135,-94.78252,180.8598,0,0
45.88881,-16005.58,590.6763,-4452.656,-1092.097,-79.7946,194.3375,0,0
45.98835,-15988.82,603.0874,-4488.724,-1091.283,-84.63761,161.6434,0,0
46.03813,-15991.51,587.0894,-4497.501,-1090.644,-62.28118,192.273,0,0
46.0879,-15992.49,578.1808,-4517.488,-1094.572,-71.77386,187.1235,0,0
46.17086,-15968.88,605.7393,-4489.515,-1084.264,-78.48818,144.9013,0,0
46.20405,-15979.67,580.2831,-4447.044,-1085.238,-99.39932,177.9762,0,0
46.3036,-15975.78,589.6266,-4454.504,-1085.984,-103.16,152.859,0,0
46.35338,-15962.88,610.0829,-4423.734,-1086.555,-82.98234,146.945,0,0
46.38656,-15965.26,626.8134,-4437.982,-1091.421,-95.20905,139.6842,0,0
46.43634,-15958.29,647.3003,-4434.593,-1086.271,-89.56914,138.3313,0,0
46.5193,-15968.54,650.6786,-4442.073,-1077.896,-79.68117,143.4408,0,0
46.61885,-15980.86,664.2198,-4480.008,-1075.934,-81.52104,163.1769,0,0
46.66863,-15958.19,678.8704,-4484.668,-1074.455,-83.7513,166.9223,0,0
46.70182,-15978.56,669.9724,-4532.525,-1077.778,-94.03035,158.4155,0,0
46.75159,-15999.72,658.5834,-4478.193,-1080.339,-93.55465,180.1525,0,0
46.80136,-15994.84,644.2145,-4469.826,-1086.74,-111.1577,210.5938,0,0
46.83455,-15985.54,661.9459,-4471.193,-1087.204,-104.8983,162.3295,0,0
46.9341,-15990.61,634.4265,-4452.316,-1083.12,-90.91069,172.4572,0,0
46.98383,-15985.62,625.5048,-4516.576,-1088.858,-100.9527,164.6801,0,0
47.01706,-15975.15,606.4746,-4543.527,-1084.378,-101.6761,163.7076,0,0
47.06684,-15963.84,639.5719,-4557.361,-1080.948,-104.4044,155.485,0,0
47.11661,-15969.64,652.6811,-4511.277,-1082.76,-96.47767,150.8699,0,0
47.16639,-15980.76,622.7617,-4516.92,-1075.29,-108.386,145.7037,0,0
47.28254,-15963.8,639.733,-4510.093,-1074.022,-75.91035,141.2337,0,0
47.33231,-15975.23,619.4526,-4499.276,-1077.505,-77.66017,155.3073,0,0
47.36549,-15982.9,624.9819,-4502.052,-1071.323,-81.79269,149.7553,0,0
47.43186,-15978.8,612.5944,-4446.544,-1075.479,-76.10656,154.3912,0,0
47.46504,-16005.58,609.7817,-4507.174,-1074.246,-89.77946,124.4419,0,0
47.51482,-16002.76,626.4915,-4489.303,-1068.889,-76.97585,168.6149,0,0
47.5646,-16030.47,622.6584,-4505.532,-1069.247,-48.36142,196.0412,0,0
47.63097,-16008.37,595.3508,-4541.185,-1060.687,-63.92862,185.1014,0,0
47.69734,-16017.99,598.8771,-4518.513,-1067.472,-68.41744,173.8959,0,0
47.74711,-15985.4,598.3058,-4546.514,-1068.263,-63.02557,166.3942,0,0
47.7803,-16018.07,586.8409,-4527.952,-1077.755,-73.34296,175.5954,0,0
47.87984,-15999.8,573.7059,-4522.529,-1071.73,-79.87566,151.3138,0,0
47.92962,-15972.51,594.769,-4509.46,-1071.561,-74.35453,165.1529,0,0
47.9628,-15994.86,591.0026,-4514.942,-1067.015,-84.54253,154.9717,0,0
48.06236,-15972.08,583.7401,-4536.832,-1063.558,-79.59274,147.4711,0,0
48.07895,-15991.24,558.3057,-4557.942,-1074.236,-62.51045,139.5473,0,0
48.14532,-15997.05,568.865,-4508.617,-1077.984,-29.80898,129.3776,0,0
48.1951,-15990.4,606.9526,-4484.139,-1071.987,-24.27347,135.7883,0,0
48.24487,-15998.6,619.4952,-4527.488,-1076.266,-26.25176,137.1504,0,0
48.26146,-15990.46,611.3405,-4494.16,-1079.541,-37.84906,147.1034,0,0
48.36101,-16015.24,611.7311,-4470.887,-1077.608,-28.52875,198.5039,0,0
48.41078,-16021.98,616.4489,-4413.271,-1071.693,-48.62971,164.09,0,0
48.46056,-16019.31,628.9008,-4410.359,-1076.036,-24.18306,184.5296,0,0
48.51033,-16008.34,622.8745,-4475.917,-1079.361,-45.72113,172.4227,0,0
48.56011,-16027.61,620.4416,-4466.336,-1081.899,-41.76047,163.6763,0,0
48.5933,-16002.41,606.3665,-4469.035,-1074.965,-58.71751,200.1761,0,0
48.64307,-15981.99,632.1553,-4476.694,-1082.953,-58.96787,160.7306,0,0
48.72604,-15989.66,613.0751,-4439.388,-1075.759,-60.27261,170.6904,0,0
48.77581,-15995.55,628.3713,-4454.146,-1083.547,-68.47424,174.1434,0,0
48.82558,-15988.98,601.2693,-4463.309,-1085.062,-74.18256,161.5289,0,0
48.90854,-15976.22,604.9147,-4511.365,-1081.772,-77.96918,158.5222,0,0
48.94173,-16003.05,595.5356,-4545.881,-1083.673,-83.60049,145.985,0,0
49.0081,-15996.99,587.2833,-4483.542,-1071.821,-87.30956,153.0437,0,0
49.04128,-15995.66,605.3907,-4477.917,-1076.054,-71.26191,154.0395,0,0
49.12424,-16009.05,605.9703,-4498.008,-1074.868,-66.43819,158.421,0,0
49.22379,-15996.01,626.3611,-4494.535,-1069.535,-68.00518,181.4466,0,0
49.27357,-15981.59,661.8726,-4490.753,-1069.901,-75.29275,184.9048,0,0
49.32335,-15988.31,636.8725,-4504.47,-1065.767,-67.55692,201.6238,0,0
49.35653,-15975.75,659.7687,-4520.475,-1080.352,-65.50832,170.5769,0,0
49.40631,-15951.78,624.0165,-4532.657,-1087.078,-75.57409,168.6722,0,0
49.48927,-15991.13,617.6715,-4495.359,-1083.34,-77.99767,158.8989,0,0
49.53904,-15991.35,608.3799,-4487.845,-1084.894,-70.96477,155.8641,0,0
49.58881,-15973.79,592.4231,-4492.076,-1077.203,-77.75753,152.7331,1,0
49.67178,-15995.84,595.7713,-4521.907,-1071.314,-72.6878,167.8133,1,0
49.72155,-15981.69,596.1653,-4572.375,-1071.252,-67.13386,153.3188,1,0
49.77133,-15969.77,593.1859,-4525.535,-1071.218,-87.81027,141.6937,1,0
49.85429,-15973.99,568.7955,-4536.134,-1080.068,-80.60925,160.8176,1,0
49.93725,-15987.23,570.1627,-4522.01,-1069.112,-80.33131,140.8466,1,0
49.98703,-15967.45,572.4109,-4482.347,-1069.603,-89.78769,123.9451,1,0
50.0368,-15963.44,600.8025,-4509.634,-1065.564,-92.27499,142.6654,1,0
50.06999,-15960.42,573.8093,-4488.414,-1075.79,-86.0993,122.1433,1,0
50.11976,-15983.65,574.2632,-4524.268,-1074.756,-91.03267,174.0921,1,0
50.16954,-16000.33,596.8362,-4518.435,-1073.966,-69.28937,154.5595,1,0
50.21932,-15956.57,585.3289,-4523.903,-1073.365,-84.22581,134.6252,1,0
50.30228,-15981.84,608.6824,-4546.875,-1068.478,-81.5146,125.2314,1,0
50.33546,-16006.74,619.8981,-4525.594,-1064.751,-84.68499,120.6043,1,0
50.40183,-15990.3,620.6864,-4531.413,-1061.922,-94.84481,163.3922,1,0
50.48479,-15989.88,607.9521,-4463.807,-1064.216,-82.63839,168.9875,1,0
50.53456,-15978.47,613.6993,-4506.314,-1065.995,-81.03288,173.5108,1,0
50.56775,-15978.61,604.7817,-4504.522,-1067.374,-66.22376,154.7716,1,0
50.6673,-16005.33,601.2751,-4473.246,-1072.874,-75.68237,145.9627,1,0
50.71708,-15989.17,607.4589,-4515.847,-1081.515,-69.07978,150.8712,1,0
50.75026,-15995.63,607.7541,-4489.728,-1079.247,-80.93637,145.2219,1,0
50.80004,-15996.12,644.5289,-4505.216,-1073.064,-61.2009,160.3044,1,0
50.84982,-16008.66,637.1418,-4522.614,-1077.193,-67.45125,147.7427,1,0
50.93277,-16002.7,644.7064,-4558.05,-1075.914,-74.47228,161.1265,1,0
50.98255,-16000.31,659.2743,-4540.747,-1079.36,-81.23481,176.896,1,0
51.03233,-16007.33,676.9592,-4522.991,-1077.554,-75.87432,168.9763,1,0
51.06551,-16029.27,661.5456,-4508.259,-1076.162,-79.24668,154.8485,1,0
51.11529,-16022.72,662.9302,-4567.885,-1083.954,-94.8368,141.2646,1,0
51.16506,-16039.78,648.3768,-4583.495,-1085.466,-93.15813,128.1293,1,0
51.24791,-16037.24,608.3666,-4548.755,-1086.598,-138.9157,60.80733,1,0
51.2978,-16040.73,572.2266,-4561.964,-1083.007,-151.3736,26.3741,1,0
51.34758,-16056.6,566.8291,-4504.401,-1084.672,-188.4409,16.63923,1,0
51.38076,-16024.31,581.6538,-4481.417,-1085.927,-178.0813,51.85617,1,0
51.46372,-16017.26,599.7346,-4442.863,-1091.298,-191.267,36.92214,1,0
51.5135,-16006.29,629.1233,-4430.142,-1090.946,-211.9372,8.537827,1,0
51.56327,-16033.35,615.0319,-4438.326,-1077.353,-243.5639,16.99153,1,0
51.59646,-15990.86,627.5049,-4402.667,-1080.241,-260.8096,-14.23666,1,0
51.64623,-16038.13,631.4858,-4377.824,-1078.018,-285.5765,-65.54116,1,0
51.69601,-16036.58,653.3282,-4305.918,-1071.887,-294.7377,-56.78215,1,0
51.74579,-16029.79,641.1617,-4310.02,-1076.071,-239.8825,10.94046,1,0
51.87852,-16047.8,656.1632,-4305.816,-1074.849,-213.7084,-161.9068,1,0
51.9283,-16074.81,650.9457,-4244.282,-1069.491,-230.619,-69.61867,1,0
51.96149,-16088.69,674.5762,-4203.227,-1069.839,-233.6832,-114.1117,1,0
52.01124,-16102.47,622.7562,-4181.244,-1074.556,-225.3178,-84.89339,1,0
52.06102,-16094,634.0447,-4165.021,-1078.174,-230.9412,-121.463,1,0
52.1933,-16150.5,623.8363,-4250.701,-1080.941,-254.4718,-173.7185,1,0
52.24308,-16128.1,625.996,-4225.842,-1083.051,-309.3918,-134.5795,1,0
52.27619,-16096.34,606.6018,-4097.55,-1080.221,-309.8506,-159.6254,1,0
52.32594,-16122.84,616.1701,-4047.649,-1078.049,-324.57,-150.9702,1,0
52.37568,-16123.01,586.9601,-4109.919,-1076.385,-406.1352,-152.0037,1,0
52.42537,-16115.21,637.7988,-4030.786,-1075.114,-470.0245,-216.1412,1,0
52.50834,-16115.73,662.2879,-3937.7,-1069.715,-436.0624,-198.2973,1,0
52.55808,-16150.33,696.456,-3905.01,-1070.032,-386.2823,-188.3727,1,0
52.59125,-16159.99,759.0074,-3860.986,-1065.86,-369.9571,-193.9749,1,0
52.64099,-16177.13,691.3834,-3836.03,-1067.122,-352.443,-197.0717,1,0
52.69073,-16166.74,613.9944,-3820.139,-1068.111,-345.9862,-197.709,1,0
52.77364,-16213.95,542.6134,-3808.956,-1068.885,-394.2758,-292.0293,1,0
52.82339,-16192.18,524.7421,-3762.575,-1065.062,-398.2501,-313.031,1,0
52.87314,-16171.95,512.4231,-3689.301,-1066.589,-399.5963,-319.6927,1,0
52.9063,-16142.97,538.7123,-3574.505,-1063.345,-377.619,-429.7704,1,0
52.95605,-16147.27,545.7426,-3525.611,-1069.749,-391.5805,-325.7874,1,0
53.00579,-16167.06,591.1735,-3376.559,-1065.799,-389.2814,-380.2837,1,0
53.08871,-16177.64,623.7939,-3322.802,-1062.791,-382.8595,-334.74,1,0
53.13845,-16190,667.5734,-3236.807,-1064.943,-352.5376,-317.7016,1,0
53.1882,-16241.37,678.8062,-3049.799,-1057.745,-288.7664,-303.722,1,0
53.22137,-16257.14,718.2735,-3097.082,-1061.129,-284.5656,-305.7096,1,0
53.30428,-16284.41,717.2375,-3101.968,-1068.175,-303.2752,-277.563,1,0
53.37061,-16281.66,710.6835,-3029.96,-1069.145,-282.4282,-263.8154,1,0
53.40377,-16263.7,697.7167,-3119.6,-1065.458,-302.5189,-317.0826,1,0
53.50326,-16270.72,708.6841,-3069.037,-1071.509,-368.8603,-442.8715,1,0
53.55301,-16312.37,781.1649,-2925.556,-1080.57,-392.081,-436.4118,1,0
53.60276,-16309.56,775.4012,-2884,-1078.62,-335.7101,-370.5573,1,0
53.63592,-16317.04,823.8624,-2836.29,-1077.109,-294.9801,-359.9438,1,0
53.71883,-16353.46,805.1801,-2705.224,-1075.937,-276.5736,-370.6245,1,0
53.76857,-16373.18,787.2195,-2651.234,-1070.598,-223.2348,-307.3152,1,0
53.81832,-16382.31,743.2855,-2639.656,-1070.943,-170.9656,-207.1834,1,0
53.86806,-16367.83,758.2374,-2643.849,-1071.209,-141.2305,-147.7865,1,0
53.90123,-16366.35,724.0875,-2630.087,-1071.414,-130.7412,-95.62081,1,0
54.00072,-16358.23,721.1154,-2677.836,-1076.002,-139.147,-77.62865,1,0
54.03389,-16373.86,699.9314,-2619.594,-1083.936,-143.4242,-32.65164,1,0
54.08363,-16365.56,701.4148,-2586.594,-1089.982,-126.2324,8.252751,1,0
54.13338,-16419.85,681.4789,-2627.194,-1081.276,-157.4326,-13.02355,1,0
54.20007,-16397.87,683.9643,-2558.898,-1079.022,-168.8188,7.070118,1,0
54.24989,-16402.87,719.1195,-2515.87,-1077.285,-166.6551,46.07814,1,0
54.29967,-16364.29,741.5399,-2524.333,-1075.947,-175.1587,43.28133,1,0
54.33286,-16393.25,724.249,-2491.247,-1079.35,-168.8125,66.94812,1,0
54.44901,-16358.66,714.2643,-2492.815,-1068.65,-158.5798,76.78471,1,0
54.48219,-16410.65,712.1171,-2545.208,-1073.765,-183.0517,29.78686,1,0
54.53196,-16410.3,718.194,-2354.933,-1077.684,-167.5602,112.2296,1,0
54.58174,-16392.04,712.8306,-2432.331,-1071.813,-130.9157,130.4857,1,0
54.63152,-16374.53,706.4773,-2455.189,-1067.325,-107.5105,116.7529,1,0
54.76426,-16496.11,612.9741,-2483.797,-1059.474,-165.7393,-12.5262,1,0
54.79745,-16455.84,603.6251,-2456.855,-1071.221,-154.4928,-187.5698,1,0
54.84722,-16437.98,652.0762,-2400.68,-1066.927,-138.8133,-157.9438,1,0
54.897,-16416.29,637.2003,-2454.028,-1072.516,-171.5593,-123.4572,1,0
54.94678,-16454.88,710.1254,-2383.891,-1067.934,-217.2029,-119.4051,1,0
55.07952,-16438.75,751.5046,-2292.431,-1068.868,-214.7266,-10.16521,1,0
55.1127,-16467.16,774.1732,-2346.547,-1074.023,-167.6584,97.3758,1,0
55.16248,-16439.9,751.4512,-2333.578,-1069.103,-166.8758,114.7471,1,0
55.21226,-16424.37,736.1357,-2269.217,-1069.775,-170.2354,120.1113,1,0
55.26204,-16450,701.0553,-2377.198,-1070.295,-174.2616,135.4042,1,0
55.29522,-16418.47,731.7993,-2297.775,-1075.129,-143.6121,163.273,1,0
55.39478,-16417.47,719.816,-2341.986,-1065.529,-113.3454,180.2362,1,0
55.42796,-16401.1,722.7849,-2357.743,-1067.056,-106.7007,190.775,1,0
55.47774,-16425.06,701.7481,-2354.958,-1072.668,-132.55,175.3499,1,0
55.52752,-16408.96,702.2638,-2341.267,-1063.668,-187.0847,155.6185,1,0
55.57729,-16405.42,800.1503,-2294.853,-1061.227,-202.5181,98.87325,1,0
55.61048,-16403.76,755.2306,-2233.428,-1063.813,-155.0186,113.3677,1,0
55.66026,-16389.14,732.913,-2199.389,-1070.24,-138.6553,111.2111,1,0
55.74322,-16369.08,746.7936,-2179.709,-1066.298,-129.2741,120.4181,1,0
55.793,-16382.56,737.4017,-2165.484,-1067.721,-111.685,116.9912,1,0
55.84278,-16372.94,776.6851,-2180.901,-1068.815,-103.3556,210.2609,1,0
55.89256,-16409.92,761.2009,-2214.503,-1069.656,-109.0513,212.8517,1,0
55.92574,-16421.54,797.9896,-2195.438,-1065.869,-91.67533,193.3859,1,0
55.97552,-16361.68,786.097,-2144.918,-1062.978,-97.3786,172.0553,1,0
56.05848,-16371.29,794.5737,-2171.21,-1069.643,-101.6206,146.5967,1,0
56.10826,-16360.95,761.0288,-2224.086,-1070.314,-75.64529,149.0708,1,0
56.15804,-16348.67,775.1585,-2281.649,-1070.825,-60.652,149.3968,1,0
56.2405,-16364.82,778.127,-2295.002,-1066.781,-76.24887,133.9629,1,0
56.34007,-16367.25,752.607,-2289.966,-1063.691,-81.70846,156.3592,1,0
56.37326,-16363.61,715.3099,-2314.05,-1056.907,-101.54,149.7932,1,0
56.47282,-16353.11,752.171,-2331.559,-1056.172,-103.5181,152.6484,1,0
56.50601,-16398.3,762.6384,-2311.856,-1055.638,-96.24763,141.1169,1,0
56.55579,-16400.72,750.6575,-2303.579,-1055.258,-95.75607,148.5158,1,0
56.58898,-16404.75,743.6757,-2362.777,-1063.857,-89.37318,154.0581,1,0
56.65536,-16398.9,757.1568,-2335.013,-1061.584,-95.66066,163.1577,1,0
56.73832,-16412.11,717.5905,-2371.449,-1059.855,-110.5217,166.3811,1,0
56.78811,-16442.09,711.725,-2394.914,-1054.113,-128.8613,166.2134,1,0
56.83789,-16391.8,748.292,-2243.328,-1058.607,-72.27261,284.2083,1,0
56.87108,-16409.77,746.3589,-2336.94,-1062.063,-56.48724,263.0912,1,0
56.92086,-16394.68,726.0305,-2382.096,-1055.852,-68.37492,267.0814,1,0
56.97064,-16439.61,704.9595,-2367.883,-1059.98,-78.4278,198.6346,1,0
57.05361,-16405.2,721.0337,-2277.229,-1063.149,-67.10474,202.8552,1,0
57.1034,-16396.55,725.6259,-2304.402,-1065.578,-56.33018,138.0869,1,0
57.15318,-16378.84,733.5992,-2271.056,-1067.433,-29.65488,156.6392,1,0
57.16977,-16370.85,720.8772,-2280.068,-1059.982,-9.970186,161.6755,1,0
57.23615,-16378.08,711.1714,-2350.283,-1063.149,-35.8325,136.9657,1,0
57.31911,-16367.02,730.3835,-2363.051,-1061.144,-54.9534,119.451,1,0
57.36889,-16367.47,737.3473,-2334.019,-1050.753,-72.45908,143.7668,1,0
57.45186,-16336.85,716.0828,-2312.931,-1056.12,-87.01937,113.088,1,0
57.50164,-16320.17,761.8795,-2291.328,-1055.815,-92.08639,143.6759,1,0
57.55143,-16331.93,750.3487,-2292.641,-1055.597,-85.71751,154.9074,1,0
57.58461,-16321.1,727.0801,-2315.922,-1051.014,-91.93268,159.5997,1,0
57.68418,-16369.45,749.1637,-2352.638,-1051.962,-118.292,151.7979,1,0
57.73396,-16337.8,795.9495,-2296.524,-1061.572,-108.5002,150.7902,1,0
57.81693,-16355.75,769.5927,-2351.148,-1068.929,-99.58045,145.8489,1,0
57.86671,-16378.39,747.1229,-2284.374,-1065.679,-57.0097,163.9417,1,0
57.91649,-16358.05,789.7239,-2294.302,-1063.181,-47.76511,157.809,1,0
57.94968,-16325.9,746.8969,-2236.64,-1061.263,-98.1203,107.6646,1,0
57.99946,-16326.86,765.0558,-2228.167,-1064.227,-93.45198,125.8594,1,0
58.08242,-16350.96,816.5751,-2293.921,-1057.627,-94.85419,155.0672,1,0
58.1322,-16346.19,818.188,-2285.621,-1061.446,-113.3645,172.4183,1,0
58.18199,-16352.55,803.7495,-2242.791,-1059.938,-113.6356,134.1233,1,0
58.2147,-16371.85,789.2497,-2202.42,-1063.219,-91.08094,153.0176,1,0
58.26448,-16392.15,802.4395,-2253.751,-1061.295,-81.56984,154.7257,1,0
58.31424,-16384.37,790.2761,-2215.638,-1064.254,-84.56106,164.8737,1,0
58.39717,-16377.25,776.4598,-2221.008,-1062.081,-70.80627,195.0319,1,0
58.44693,-16396.15,774.7083,-2300.638,-1069.279,-81.92619,184.4984,1,0
58.49669,-16401.7,778.8773,-2306.208,-1074.772,-81.8757,191.0284,1,0
58.54645,-16425.8,769.8467,-2309.34,-1070.085,-72.99409,178.2098,1,0
58.56303,-16447.45,793.9369,-2365.99,-1070.911,-61.24786,158.9201,1,0
58.67915,-16419.54,805.6658,-2306.177,-1071.524,-53.70378,207.5628,1,0
58.71232,-16394.75,786.8575,-2351.207,-1067.544,-51.88414,198.1564,1,0
58.76208,-16401.22,792.3525,-2316.882,-1073.35,4.820056,360.6303,1,0
58.81184,-16420.52,686.8325,-2365.901,-1077.775,-10.9621,371.8411,1,0
58.8616,-16382.03,705.9378,-2396.641,-1067.838,-28.74595,314.589,1,0
58.87818,-16334.85,696.3375,-2384.52,-1069.086,-39.42582,298.9641,1,0
58.99429,-16369.73,688.0362,-2414.949,-1065.602,-58.75926,262.9238,1,0
59.02747,-16378.75,716.1903,-2352.715,-1062.935,-63.89709,163.1619,1,0
59.07722,-16406.7,705.7135,-2383.646,-1065.331,-69.22971,152.7762,1,0
59.11039,-16400.35,705.5579,-2375.061,-1058.304,-104.0549,136.3455,1,0
59.17674,-16405.42,706.6526,-2432.627,-1066.234,-101.0043,180.6797,1,0
59.20991,-16417,715.343,-2382.299,-1067.872,-83.08865,242.0714,1,0
59.30943,-16428,744.2247,-2392.396,-1073.552,-72.94708,246.0309,1,0
59.35919,-16389.8,747.5055,-2459.82,-1069.019,-97.30951,184.1329,1,0
59.39236,-16394.89,732.2838,-2395.954,-1065.541,-77.68787,199.9137,1,0
59.44213,-16433.11,698.5002,-2424.484,-1062.879,-73.18106,204.7879,1,0
59.49189,-16437.9,712.6198,-2436.184,-1056.416,-76.10439,205.731,1,0
59.62458,-16411.55,703.5576,-2419.47,-1055.922,-94.40308,183.9994,1,0
59.65775,-16355.88,737.6923,-2360.001,-1059.997,-87.31982,216.6891,1,0
59.70751,-16352.12,729.4861,-2408.636,-1063.128,-71.62221,224.5012,1,0
59.75727,-16326.08,713.2509,-2451.305,-1061.098,-64.59972,203.2784,1,0
59.80703,-16320.69,699.7679,-2449.43,-1059.552,-52.88077,211.6675,1,0
59.8402,-16332.23,705.0384,-2489.902,-1062.81,-74.1496,190.0903,1,0
59.93972,-16350.05,674.7997,-2445.286,-1065.307,-79.91164,259.7247,1,0
59.98949,-16370.41,675.0458,-2445.312,-1062.785,-85.41842,200.4586,1,0
60.02266,-16364.98,682.0086,-2373.18,-1056.426,-56.65237,208.8134,1,0
60.07241,-16375.25,648.6708,-2412.147,-1060.437,-55.71904,238.7375,1,0
60.12217,-16370.93,641.0465,-2408.69,-1054.653,-60.58755,200.0827,1,0
60.20511,-16401.99,635.3942,-2408.21,-1063.538,-85.39378,157.2033,1,0
60.28804,-16361.45,614.6379,-2412.229,-1070.34,-96.04877,182.367,1,0
60.3378,-16385.84,633.3143,-2423.01,-1062.237,-100.5528,191.7116,1,0
60.38756,-16364.62,646.6774,-2422.328,-1056.035,-91.19994,142.3911,1,0
60.43732,-16331.79,650.3919,-2385.18,-1051.303,-77.07861,193.9433,1,0
60.4705,-16343.31,650.0258,-2436.521,-1043.277,-83.71333,132.6144,1,0
60.60319,-16280.2,684.1953,-2327.287,-1054.9,-74.65268,138.4293,1,0
60.65295,-16290.81,687.1154,-2384.504,-1059.384,-79.90698,152.4291,1,0
60.70271,-16320.17,680.5013,-2369.621,-1058.39,-107.1874,93.17047,1,0
60.75247,-16338.32,695.405,-2354.956,-1057.634,-103.91,148.8329,1,0
60.78564,-16327.9,680.22,-2431.33,-1061.493,-121.0047,102.3564,1,0
60.86858,-16390.89,733.9805,-2456.475,-1055.583,-117.6572,117.6389,1,0
60.91834,-16383.66,749.5632,-2462.281,-1055.501,-102.271,117.2953,1,0
60.9681,-16390.25,735.882,-2463.243,-1051.018,-84.63171,173.9407,1,0
61.01786,-16406.31,740.8221,-2438.348,-1052.038,-94.11443,140.8668,1,0
61.10079,-16396.34,715.7019,-2435.818,-1057.268,-85.01464,157.9864,1,0
61.15054,-16395.29,664.3063,-2452.639,-1061.276,-99.0975,179.9832,1,0
61.23348,-16402.16,695.9418,-2421.096,-1051.047,-89.35492,192.921,1,0
61.28324,-16395.16,679.1853,-2444.55,-1043.233,-102.9369,152.0883,1,0
61.333,-16398.61,681.9127,-2477.935,-1046.149,-95.57332,141.6375,1,0
61.41593,-16371.27,687.3638,-2518.849,-1048.409,-92.96278,155.3033,1,0
61.46569,-16383.58,702.6398,-2463.522,-1045.729,-98.98399,133.6703,1,0
61.51545,-16359.74,729.8324,-2481.986,-1043.703,-97.19936,136.2949,1,0
61.54863,-16374.76,715.1266,-2472.721,-1046.612,-96.64422,154.1594,1,0
61.59838,-16379.61,717.1219,-2510.937,-1048.861,-96.75594,149.0278,1,0
61.64814,-16382.19,737.4418,-2421.469,-1050.596,-118.1503,145.6858,1,0
61.73108,-16380.83,736.2968,-2444.941,-1060.797,-108.1552,113.8094,1,0
61.78084,-16383.09,722.0473,-2410.819,-1064.161,-91.87756,149.0593,1,0
61.8306,-16369.3,752.0845,-2378.098,-1057.852,-71.93811,204.3219,1,0
61.86377,-16379.79,749.4943,-2419.642,-1061.877,-81.92233,165.1028,1,0
61.91353,-16375.63,769.5693,-2422.672,-1060.513,-71.31115,163.0347,1,0
61.96329,-16374.66,752.6745,-2376.263,-1059.457,-73.48009,175.0169,1,0
62.01305,-16368.38,749.6164,-2406.213,-1063.071,-121.9846,103.8426,1,0
62.09599,-16363.58,736.1172,-2370.478,-1061.391,-110.8562,52.80599,1,0
62.12916,-16361.04,755.6485,-2370.939,-1068.955,-90.93262,97.61819,1,0
62.17892,-16377.96,773.8398,-2341.501,-1065.856,-100.3282,37.34425,1,0
62.22868,-16357.67,796.5059,-2299.204,-1063.463,-85.62309,64.29779,1,0
62.27844,-16374.3,780.4547,-2314.726,-1066.048,-72.71767,122.2354,1,0
62.31161,-16392.57,772.4709,-2286.952,-1068.01,-78.66797,114.294,1,0
62.41113,-16374.38,771.7982,-2335.752,-1069.49,-66.91296,148.9817,1,0
62.49406,-16362.67,747.9275,-2287.961,-1061.736,-81.23145,152.5258,1,0
62.54382,-16354.83,798.304,-2298.145,-1060.226,-86.95121,70.73356,1,0
62.57681,-16336.7,764.7219,-2315.017,-1063.5,-78.31772,182.1915,1,0
62.64334,-16333.97,777.7216,-2314.801,-1057.136,-71.45407,191.8133,1,0
62.67652,-16313.13,761.0008,-2357.991,-1061.132,-62.63714,161.1086,1,0
62.72628,-16329.44,781.3891,-2380.024,-1055.327,-74.77643,120.6544,1,0
62.80921,-16337.57,786.9413,-2426.791,-1055.324,-67.20303,167.5514,1,0
62.85897,-16328.35,788.8799,-2419.271,-1059.764,-91.08011,108.6779,1,0
62.90873,-16351.29,793.5916,-2417.844,-1058.732,-83.03542,135.9616,1,0
62.95887,-16334.52,787.1268,-2397.827,-1053.512,-66.90857,168.4939,1,0
63.02527,-16338.36,803.1441,-2406.834,-1053.961,-79.80419,199.4282,1,0
63.12486,-16365.72,797.569,-2367.146,-1058.748,-74.73132,181.9876,1,0
63.22444,-16325.72,795.4208,-2388.863,-1062.414,-87.48408,187.3771,0,0
63.27423,-16342.8,802.5538,-2385.537,-1060.781,-82.00504,212.1783,0,0
63.30742,-16375.85,795.7329,-2405.141,-1068.389,-84.73575,177.2896,0,0
63.35721,-16383.38,767.1711,-2404.591,-1069.761,-82.66798,197.875,0,0
63.40701,-16421.21,779.6402,-2448.435,-1061.925,-103.2416,201.3466,0,0
63.52319,-16360.29,789.1552,-2388.802,-1060.353,-90.4205,202.7899,0,0
63.57298,-16408.92,827.4058,-2323.201,-1063.58,-83.91187,168.6176,0,0
63.62277,-16388.44,806.7017,-2401.633,-1057.181,-72.83659,189.2392,0,0
63.67256,-16395.96,807.3815,-2356.409,-1052.289,-68.26112,153.4505,0,0
63.70576,-16398.32,767.9399,-2376.134,-1057.424,-60.64029,197.8008,0,0
63.77214,-16374.57,769.883,-2353.593,-1056.931,-52.64233,153.2987,0,0
63.80534,-16375.21,768.0589,-2343.053,-1056.561,-57.66534,163.5627,0,0
63.90492,-16394.51,747.8447,-2384.928,-1051.853,-65.71888,173.0845,0,0
63.93811,-16381.54,751.2618,-2372.668,-1039.403,-69.70092,147.1193,0,0
63.9879,-16410.35,738.4197,-2400.966,-1043.211,-71.10814,187.1006,0,0
64.0211,-16371.39,761.8993,-2410.397,-1046.161,-86.32561,158.1134,0,0
64.07089,-16369.26,781.0035,-2424.197,-1048.447,-74.96902,164.7368,0,0
64.12069,-16382.04,765.6927,-2398.108,-1059.078,-97.29852,173.6849,0,0
64.20367,-16377.41,760.626,-2390.287,-1058.348,-94.96272,166.9439,0,0
64.25346,-16390.46,757.8755,-2396.474,-1057.785,-82.88837,175.9021,0,0
64.30326,-16372.73,761.3352,-2487.596,-1066.212,-93.29883,175.2579,0,0
64.35305,-16361.37,755.1388,-2491.768,-1059.348,-92.65248,152.5857,0,0
64.40285,-16388.15,757.0718,-2470.354,-1062.949,-92.12881,155.4755,0,0
64.51903,-16373.17,767.4388,-2396.18,-1047.967,-89.48628,110.0763,0,0
64.55222,-16413.77,754.3268,-2377.064,-1058.674,-71.10458,142.7437,0,0
64.61861,-16402.67,731.0231,-2433.385,-1053.575,-89.45956,191.6201,0,0
64.6684,-16411.84,757.5751,-2373.406,-1054.109,-92.97114,157.5179,0,0
64.70159,-16416.56,764.6279,-2377.399,-1050.094,-104.2195,138.8954,0,0
64.73479,-16385.75,778.8887,-2399.344,-1051.466,-102.257,171.2195,0,0
64.80118,-16384.3,779.8021,-2431.656,-1052.528,-70.52296,218.6555,0,0
64.88416,-16367.68,737.2612,-2410.901,-1053.349,-90.84766,121.9045,0,0
64.93396,-16387.11,755.7141,-2421.573,-1053.984,-81.46851,156.7662,0,0
64.98375,-16351.02,733.3053,-2423.049,-1045.612,-66.26247,157.1624,0,0
65.01694,-16371.1,754.9919,-2465.121,-1052.519,-63.24763,149.7226,0,0
65.06673,-16383.17,762.751,-2444.014,-1048.951,-72.06487,172.8574,0,0
65.14972,-16361.38,765.3655,-2434.413,-1050.664,-68.31606,167.5565,0,0
65.19951,-16371.33,755.1725,-2438.079,-1056.416,-90.95674,143.8203,0,0
65.24931,-16370.11,766.2159,-2420.881,-1056.385,-107.7148,114.6107,0,0
65.29856,-16371.4,776.876,-2374.458,-1051.924,-83.92632,120.3274,0,0
65.34836,-16360.22,757.3069,-2455.322,-1052.947,-69.86344,89.62233,0,0
65.38152,-16329.55,735.6884,-2441.802,-1049.302,-16.47614,134.4,0,0
65.46445,-16351.6,743.5699,-2434.706,-1050.954,-4.833805,143.5268,0,0
65.49763,-16348.59,747.4299,-2453.596,-1047.796,5.844199,251.3445,0,0
65.56398,-16354.1,763.7084,-2495.666,-1049.823,35.43176,312.6138,0,0
65.61374,-16361.68,735.1729,-2494.459,-1046.953,51.46654,350.2946,0,0
65.64692,-16384.13,722.2433,-2492.256,-1049.201,34.38985,367.6294,0,0
65.69668,-16386.88,703.5656,-2505.921,-1055.363,32.45063,362.7218,0,0
65.77962,-16385.62,730.3774,-2552.762,-1051.213,50.70436,412.5508,0,0
65.87915,-16371.33,743.2064,-2637.09,-1056.901,49.76873,480.9323,0,0
65.91232,-16367.04,745.2953,-2625.862,-1052.385,54.37258,455.9285,0,0
65.96209,-16356.01,738.0468,-2603.557,-1044.497,76.78986,570.5524,0,0
66.01185,-16308.84,720.3414,-2622.698,-1042.909,94.24994,535.944,0,0
66.06161,-16312.74,705.7477,-2689.057,-1046.147,107.3333,555.3051,0,0
66.14453,-16311.43,689.1363,-2769.277,-1044.209,116.4964,534.0038,0,0
66.19431,-16339.36,610.0842,-2790.156,-1047.174,114.3443,532.3379,0,0
66.27725,-16338.63,632.9556,-2813.22,-1058.316,138.4461,558.7603,0,0
66.32702,-16331.49,601.9685,-2865.637,-1057.968,147.4361,617.7355,0,0
66.36019,-16306.14,611.78,-2878.405,-1057.686,144.575,508.4938,0,0
66.40996,-16289.07,574.1362,-2966.068,-1057.456,136.5419,501.4475,0,0
66.45972,-16314.93,582.2085,-3030.044,-1057.267,125.4154,503.7295,0,0
66.50948,-16288.29,589.7977,-2971.649,-1048.249,159.0434,530.6164,0,0
66.55924,-16314.56,602.5211,-3035.772,-1050.217,197.2387,599.2852,0,0
66.6256,-16288.22,574.8186,-3079.498,-1056.16,240.2415,701.4662,0,0
66.67536,-16281.48,505.1376,-3190.64,-1056.27,249.1783,647.9678,0,0
66.72512,-16258.74,473.2559,-3298.911,-1043.052,260.0068,715.5516,0,0
66.77489,-16223.79,427.1645,-3482.339,-1041.816,277.268,684.0682,0,0
66.82465,-16212.79,371.3836,-3496.965,-1040.895,246.8178,529.2079,0,0
66.87479,-16180.27,360.3518,-3479.889,-1044.646,240.3087,622.3138,0,0
66.95776,-16243.23,222.9416,-3554.993,-1051.965,274.8769,573.8416,0,0
66.99094,-16202.97,243.8496,-3642.981,-1053.135,297.3527,561.6697,0,0
67.04072,-16192.34,236.3254,-3748.472,-1049.593,270.3799,533.3008,0,0
67.0905,-16193.32,207.0019,-3767.51,-1051.316,228.3423,436.9421,0,0
67.14028,-16173.27,224.1562,-3847.81,-1052.634,202.5833,391.7864,0,0
67.19006,-16170.39,209.2351,-3837.563,-1049.207,179.6688,404.217,0,0
67.22324,-16152.94,184.1493,-3840.094,-1051.019,168.9651,408.0798,0,0
67.35599,-16154.28,192.2876,-3890.17,-1047.974,148.5314,348.3121,0,0
67.40576,-16171.09,184.815,-3904.62,-1045.65,112.6673,297.5627,0,0
67.45554,-16165.36,199.7101,-3834.247,-1048.314,121.8486,296.4743,0,0
67.48873,-16152.33,188.4545,-3844.309,-1045.927,129.4907,307.082,0,0
67.53851,-16171.39,172.678,-3873.918,-1052.972,133.1633,279.7951,0,0
67.57169,-16156.27,142.3659,-3818.797,-1058.36,140.1557,334.0433,0,0
67.63806,-16155.97,134.1968,-3860.744,-1053.603,167.1198,236.4899,0,0
67.72103,-16133.79,73.17442,-3917.159,-1045.523,137.5813,344.463,0,0
67.77081,-16113.71,89.22025,-3963.536,-1048.211,78.423,292.4168,0,0
67.80399,-16105.27,87.75931,-3903.591,-1045.843,96.70391,240.649,0,0
67.85378,-16111.27,39.62635,-3975.149,-1044.041,88.37265,233.7914,0,0
67.90355,-16110.57,110.9294,-4005.489,-1042.676,86.26588,236.945,0,0
67.95333,-16104.73,92.90326,-4062.976,-1041.648,61.22846,267.1224,0,0
67.98652,-16102.72,100.6571,-4102.407,-1040.879,53.30505,284.6669,0,0
68.0363,-16168.98,99.30079,-4033.826,-1031.447,67.08064,394.1236,0,0
68.11926,-16144.44,107.5636,-4017.926,-1037.559,100.4748,516.0803,0,0
68.16904,-16134.63,50.0324,-4133.302,-1033.4,130.8021,634.5828,0,0
68.21881,-16100.66,29.75438,-4204.958,-1039.111,144.8588,641.0601,0,0
68.252,-16072.64,13.64901,-4216.447,-1047.932,103.7746,558.4559,0,0
68.30177,-16041.48,36.19718,-4245.055,-1050.25,82.88411,466.0318,0,0
68.40133,-16060.03,14.0357,-4260.185,-1056.445,70.85627,361.8977,0,0
68.43404,-16045.69,24.13589,-4230.686,-1052.303,54.83693,314.6895,0,0
68.48382,-16053.82,14.57566,-4265.745,-1053.549,17.23726,262.1541,0,0
68.53355,-16081.33,-38.84273,-4300.362,-1050.057,1.414124,269.6273,0,0
68.5833,-16071.55,-41.54692,-4294.738,-1038.514,-23.18941,239.9269,0,0
68.61647,-16058.69,-23.1676,-4268.348,-1034.128,-37.30067,210.8963,0,0
68.66623,-16042.4,-6.441658,-4254.979,-1039.664,-6.526475,243.0799,0,0
68.74915,-16017.97,13.38544,-4320.348,-1043.918,14.49049,191.8687,0,0
68.84866,-16026.12,-4.36182,-4294.127,-1042.749,15.23428,205.9663,0,0
68.88184,-16039.24,-35.34517,-4423.885,-1041.862,20.66174,247.0272,0,0
68.98135,-16019.57,-30.98812,-4415.801,-1045.623,16.08362,230.2392,0,0
69.08085,-16014.71,-38.37611,-4409.709,-1052.933,29.32751,222.9117,0,0
69.16377,-15989.05,-50.32817,-4414.076,-1049.651,42.05428,238.617,0,0
69.2467,-15987.41,-34.74756,-4459.727,-1051.56,41.88687,209.869,0,0
69.29646,-16005.25,-42.45462,-4418.396,-1053.008,35.99786,236.8719,0,0
69.37938,-15982.56,-69.09933,-4363.789,-1054.102,47.61793,254.6939,0,0
69.42913,-15980.95,-100.228,-4423.264,-1046.06,28.30111,257.6783,0,0
69.47716,-15978.84,-126.9809,-4492.441,-1039.904,9.434783,244.8556,0,0
69.52864,-15974.14,-149.2347,-4476.974,-1039.64,-33.41791,232.6928,0,0
69.61156,-15961.9,-133.6734,-4510.884,-1035.023,-44.96741,220.502,0,0
69.64474,-15981.58,-135.7486,-4529.39,-1035.945,-38.07171,216.6178,0,0
69.69449,-15989.08,-114.7883,-4559.366,-1041.107,-56.13193,213.2768,0,0
69.74424,-15991.66,-108.3879,-4595.884,-1040.637,-69.72821,200.9328,0,0
69.79399,-15999.31,-107.63,-4572.009,-1040.287,-54.68452,150.9728,0,0
69.84375,-15968.73,-110.1027,-4560.712,-1031.168,-67.3354,128.5387,0,0
69.87691,-15975.41,-108.4112,-4566.87,-1028.648,-55.75305,109.4923,0,0
69.92667,-16020.56,-98.01096,-4568.691,-1031.185,-48.6422,95.0044,0,0
70.0096,-16016.4,-117.5382,-4514.053,-1028.724,-50.52116,133.3179,0,0
70.05936,-15995.53,-116.7413,-4528.236,-1035.735,-52.64085,120.0007,0,0
70.10911,-15994.06,-83.7805,-4492.083,-1041.116,-54.11732,122.557,0,0
70.14227,-15979.72,-96.07449,-4526.066,-1040.806,-60.36803,157.4626,0,0
70.19202,-15965.55,-75.42195,-4520.636,-1045,-56.14287,143.6479,0,0
70.24178,-15993.61,-78.34354,-4549.317,-1052.634,-81.30316,130.7711,0,0
70.30812,-15975.3,-118.1469,-4529.848,-1054.021,-85.70685,147.712,0,0
70.37446,-15976.9,-104.1239,-4480.228,-1041.76,-75.60178,139.2426,0,0
70.42422,-15979.33,-94.35009,-4492.96,-1045.668,-105.3807,155.917,0,0
70.47397,-15992.36,-113.3406,-4468.119,-1048.653,-89.75148,203.1496,0,0
70.50714,-15959.19,-126.6219,-4482.156,-1055.356,-91.74619,163.4347,0,0
70.55689,-15968.27,-106.7056,-4450.607,-1056.028,-87.85316,144.2015,0,0
70.63982,-15990.83,-78.04427,-4432.983,-1060.945,-91.37891,168.6633,0,0
70.68996,-16010.37,-57.16295,-4457.088,-1060.24,-67.35044,183.035,0,0
70.7398,-15988.76,-56.69226,-4467.672,-1064.095,-69.64744,191.8581,0,0
70.77299,-15985.55,-48.58662,-4456.805,-1062.573,-66.34402,162.8987,0,0
70.82278,-15974.29,-43.51609,-4474.967,-1061.372,-71.78123,154.9289,0,0
70.87258,-16003.4,-25.27073,-4472.115,-1055.989,-64.51523,179.3852,0,0
70.92238,-16015.73,-30.21284,-4483.098,-1051.85,-75.51591,158.5381,0,0
71.00536,-16009.63,-5.257638,-4435.972,-1044.244,-97.43365,126.868,0,0
71.03856,-16029.32,7.08427,-4437.526,-1042.863,-113.5382,123.8162,0,0
71.10495,-16025.5,-13.51835,-4451.982,-1046.252,-109.651,123.2895,0,0
71.12155,-16030.29,-9.438346,-4422.002,-1048.852,-117.0614,101.7024,0,0
71.18794,-16029.47,-16.37467,-4443.372,-1046.411,-114.5566,136.317,0,0
71.25433,-15999.99,-7.352923,-4424.247,-1048.979,-100.3196,134.6646,0,0
71.32073,-15995.17,-30.44199,-4426.229,-1055.375,-95.97343,134.5982,0,0
71.37052,-15990.4,-3.835538,-4414.458,-1051.394,-89.52261,146.5424,0,0
71.42033,-15989.01,27.52667,-4391.077,-1043.908,-80.92599,176.2355,0,0
71.45351,-15980.23,42.52025,-4439.727,-1038.188,-65.1709,157.4081,0,0
71.55311,-16018.99,6.180436,-4386.104,-1038.265,-56.99059,138.8632,0,0
71.5863,-15998.79,2.63883,-4429.333,-1038.347,-62.38401,141.9024,0,0
71.68543,-16012.13,-6.794567,-4446.911,-1042.864,-81.75692,93.32741,0,0
71.71848,-16022.34,-14.06588,-4471.395,-1037.469,-93.23151,129.6951,0,0
71.81803,-16026.79,-11.90709,-4454.583,-1033.361,-96.97141,110.8103,0,0
71.86778,-16002.46,-8.070304,-4431.676,-1030.246,-87.58266,133.299,0,0
71.90095,-15993.81,9.229842,-4467.306,-1045.623,-81.73801,159.9892,0,0
72.00044,-16008.26,30.15308,-4457.94,-1044.101,-65.32951,152.4417,0,0
72.03361,-15977.23,18.35536,-4501.666,-1038.506,-79.9228,168.5483,0,0
72.08336,-15970.16,32.49731,-4515.042,-1047.53,-104.9248,139.3063,0,0
72.1331,-16000.28,46.53198,-4490.758,-1036.708,-143.6544,116.9549,0,0
72.18285,-16011.16,22.79231,-4434.38,-1037.302,-170.9284,75.83597,0,0
72.26576,-16047.17,42.20077,-4348.031,-1037.774,-117.0909,158.915,0,0
72.31551,-16029.22,72.44978,-4386.273,-1042.58,-98.49686,172.3753,0,0
72.34867,-16015.42,77.70009,-4381.337,-1041.831,-78.68825,177.6413,0,0
72.39842,-16026.99,60.48348,-4388.764,-1041.262,-83.47799,165.8224,0,0
72.44817,-16011.43,67.10426,-4376.829,-1045.261,-74.13308,138.7378,0,0
72.49792,-16016.12,34.36323,-4412.129,-1043.888,-58.69544,161.2367,0,0
72.53108,-16017.49,20.31234,-4417.037,-1033.972,-58.8453,118.6203,0,0
72.66412,-16000.79,21.71689,-4468.452,-1039.696,-30.7687,156.1381,0,0
72.71397,-16010.18,27.19889,-4442.358,-1039.655,-32.37871,157.4338,0,0
72.76376,-16018.47,-0.7662562,-4420.128,-1039.63,-44.24624,137.0849,0,0
72.79697,-16048.07,14.41066,-4407.559,-1048.481,-71.41125,140.6471,0,0
72.84676,-16075.07,6.085335,-4434.541,-1059.674,-81.69471,137.5818,0,0
72.89655,-16037.99,1.940657,-4413.087,-1054.911,-112.5383,125.5707,0,0
72.94634,-16033.91,17.62321,-4387.832,-1055.667,-92.5841,150.218,0,0
73.02934,-16016.35,44.01762,-4377.449,-1051.789,-98.03932,136.1275,0,0
73.07913,-16039.46,19.83848,-4356.317,-1048.802,-81.1199,164.6938,0,0
73.11233,-16033.84,14.60302,-4383.497,-1042.076,-100.2859,133.9049,0,0
73.16191,-16059.42,29.42497,-4396.636,-1045.796,-73.36794,176.2787,0,0
73.21191,-16045.67,21.9043,-4376.833,-1044.212,-80.46838,164.3435,0,0
73.2617,-16035.09,50.47058,-4426.014,-1047.433,-63.47056,175.386,0,0
73.2949,-16030.28,54.53472,-4402.711,-1045.463,-53.81775,182.1192,0,0
73.3447,-16029.91,63.09663,-4429.208,-1048.386,-67.25768,163.6608,0,0
73.42769,-16014.1,46.28412,-4363.048,-1050.616,-61.23289,155.5951,0,0
73.47748,-16014.2,25.59757,-4365.687,-1047.881,-56.65712,165.2009,0,0
73.52728,-16014.31,19.72197,-4334.581,-1041.35,-65.93942,157.8505,0,0
73.61027,-15998.9,28.52478,-4376.3,-1031.929,-70.85278,140.8591,0,0
73.66006,-16009.32,34.14395,-4361.784,-1038.042,-60.77604,162.5005,0,0
73.70985,-15999.6,18.48011,-4374.031,-1038.308,-52.53856,190.4057,0,0
73.75964,-15973.37,4.28351,-4353.561,-1042.957,-61.79034,194.7928,0,0
73.84264,-16017.65,-9.864428,-4373.445,-1046.52,-68.89956,178.3971,0,0
73.87583,-16005.03,-5.111348,-4393.157,-1044.811,-75.73468,207.3384,0,0
73.92562,-16014.23,-4.734108,-4390.531,-1043.502,-75.69647,197.2588,0,0
73.97542,-16004.66,0.0429033,-4386.315,-1038.069,-79.25848,164.8091,0,0
74.02521,-16032.81,-17.30525,-4367.599,-1029.493,-81.69187,185.1041,0,0
74.075,-16036.6,12.69703,-4394.321,-1031.823,-65.53136,179.546,0,0
74.10819,-16018.4,23.48926,-4384.868,-1029.203,-75.60812,169.4406,0,0
74.15799,-16019.98,23.97771,-4372.11,-1036.09,-91.07127,178.5892,0,0
74.24097,-16020.07,19.90001,-4402.271,-1041.378,-87.35851,166.7325,0,0
74.29077,-16026.79,45.57102,-4416.478,-1045.426,-83.09862,152.6696,0,0
74.37376,-16039.66,25.2761,-4443.915,-1048.516,-92.83317,154.1216,0,0
74.42355,-16019.56,16.36521,-4459.264,-1042.004,-91.65901,165.2323,0,0
74.45674,-16024.1,-12.60976,-4402.184,-1037.017,-84.90677,167.6477,0,0
74.52314,-16046.41,-30.29177,-4421.616,-1037.642,-86.64129,155.3675,0,0
74.65592,-16040.16,-6.054692,-4371.084,-1038.13,-101.2409,163.1601,0,0
74.68912,-16041.98,0.3646507,-4370.128,-1038.512,-88.54634,125.65,0,0
74.73891,-16007.88,9.740254,-4382.76,-1043.242,-77.696,39.69315,0,0
74.7887,-15979.58,-49.54401,-4389.144,-1046.859,-66.34615,-20.84614,0,0
74.8717,-16020.06,-17.24555,-4359.709,-1049.615,-104.7687,18.24318,0,0
74.92149,-15984.58,-33.44266,-4366.061,-1047.276,-105.6011,47.09259,0,0
74.9688,-16007.36,-20.26919,-4388.717,-1045.472,-119.1949,44.1981,0,0
75.03767,-15994.91,-15.66199,-4347.361,-1052.945,-146.1316,46.34902,0,0
75.08747,-16031.96,3.420113,-4345.713,-1058.643,-153.3151,91.95026,0,0
75.13726,-16018.2,36.86116,-4383.331,-1049.675,-153.1195,88.44742,0,0
75.18706,-16012.09,56.84579,-4370.047,-1047.226,-157.2532,74.76803,0,0
75.23635,-16025.15,74.23863,-4367.673,-1049.775,-132.8508,-28.93007,0,0
75.28615,-16050.63,65.24088,-4297.215,-1051.714,-99.95839,-83.05659,0,0
75.31934,-16044.59,80.37842,-4326.561,-1048.751,-140.41,-8.000229,0,0
75.41894,-16059.85,110.6441,-4295.984,-1042.042,-151.3468,21.47542,0,0
75.46873,-16064.79,92.60863,-4258.364,-1036.913,-146.0334,64.43243,0,0
75.50193,-16040.78,69.77078,-4285.221,-1041.868,-151.2835,32.57646,0,0
75.55172,-16071.1,45.53483,-4192.982,-1045.669,-151.5982,30.47166,0,0
75.60152,-16076.48,69.03507,-4192.548,-1048.576,-150.6316,28.98878,0,0
75.65131,-16077.17,117.955,-4204.782,-1041.93,-132.9055,68.69033,0,0
75.6845,-16079.8,80.98611,-4136.934,-1041.28,-119.8419,73.35699,0,0
75.76749,-16102.76,92.45565,-4156.354,-1040.789,-116.4748,81.92679,0,0
75.81729,-16104.67,103.3275,-4096.294,-1044.854,-103.37,58.56833,0,0
75.86708,-16090.46,98.21355,-4128.374,-1043.534,-119.3978,103.8742,0,0
75.91688,-16083.91,118.545,-4081.345,-1042.525,-90.67043,104.159,0,0
75.95007,-16068.83,122.8687,-4115.631,-1041.756,-93.9345,151.6749,0,0
75.99987,-16087.15,134.8749,-4179.944,-1045.604,-134.1461,151.8836,0,0
76.08286,-16114.38,137.235,-4172.909,-1039.685,-121.4033,197.3021,0,0
76.13265,-16097.42,139.9685,-4203.197,-1035.163,-120.7676,175.8744,0,0
76.18244,-16129.75,167.3633,-4217.666,-1040.583,-125.5273,194.7222,0,0
76.21564,-16114.45,167.058,-4222.195,-1035.878,-131.0844,206.4325,0,0
76.26543,-16115.9,140.0177,-4212.451,-1045.586,-111.2069,194.3839,0,0
76.31522,-16118,151.2966,-4254.942,-1044.151,-99.59874,181.3562,0,0
76.34841,-16106.19,117.6746,-4235.403,-1047.48,-88.25632,209.4409,0,0
76.44801,-16107.04,101.8278,-4252.609,-1050.019,-85.7277,221.3115,0,0
76.4978,-16079.91,116.2502,-4200.42,-1047.516,-74.44096,226.567,0,0
76.54759,-16065.77,125.0141,-4220.403,-1045.589,-64.22595,211.2486,1,0
76.58079,-16064.93,126.1047,-4194.781,-1048.542,-49.5888,228.6927,1,0
76.68038,-16076.49,90.30325,-4229.57,-1050.792,-65.6594,196.6918,1,0
76.73017,-16048.79,113.8597,-4186.45,-1052.499,-50.08365,239.9151,1,0
76.76337,-16049.78,101.94,-4212.283,-1049.356,-40.77301,247.5861,1,0
76.81316,-16084.94,98.33691,-4192.248,-1046.939,-45.69115,218.3357,1,0
76.86296,-16068.63,107.7581,-4223.545,-1045.084,-54.56102,252.8447,1,0
76.94595,-16060.57,118.2675,-4248.647,-1052.528,-69.75245,232.7974,1,0
76.99574,-16045.57,87.49001,-4201.367,-1049.347,-77.55724,200.6701,1,0
77.02894,-16061.84,84.99683,-4248.333,-1046.903,-79.40781,184.0273,1,0
77.06213,-16052.16,96.41074,-4239.949,-1040.599,-87.77135,177.0688,1,0
77.12852,-16041.46,127.3069,-4256.782,-1040.215,-95.00775,168.4045,1,0
77.21152,-16063.24,111.0101,-4277.374,-1044.366,-93.88615,180.8885,1,0
77.26131,-16037.83,90.74691,-4286.396,-1038.684,-89.96877,177.409,1,0
77.29449,-16060.54,127.318,-4251.096,-1038.781,-91.39834,157.8385,1,0
77.36041,-16054.68,130.8803,-4241.768,-1034.438,-77.53217,163.9369,1,0
77.44343,-16043.57,116.9179,-4258.997,-1031.137,-65.28102,170.5635,1,0
77.52644,-16051.72,119.485,-4224.514,-1028.64,-61.77172,171.485,1,0
77.57624,-16042.48,135.8121,-4255.759,-1026.763,-80.74752,174.1288,1,0
77.60944,-16037.67,101.7096,-4331.718,-1029.795,-78.11839,199.1333,1,0
77.67585,-16026.29,114.3795,-4325.414,-1032.144,-68.09143,188.3026,1,0
77.75886,-16042.03,83.07019,-4314.864,-1029.533,-76.79454,170.5569,1,0
77.84187,-16035.28,76.87557,-4324.361,-1027.559,-93.16942,196.304,1,0
77.89167,-16042.35,85.49162,-4300.45,-1030.509,-74.94375,146.7267,1,0
77.94147,-16036.72,65.543,-4299.769,-1041.65,-57.41035,181.9478,1,0
77.97468,-16039.1,70.29546,-4322.42,-1041.312,-54.01806,196.7101,1,0
78.02448,-16039.85,70.68141,-4326.332,-1041.047,-67.55105,169.186,1,0
78.1573,-16042.68,61.07226,-4326.969,-1036.408,-87.36092,140.0934,1,0
78.24031,-16058.15,21.67296,-4332.862,-1037.293,-157.0713,80.23423,1,0
78.30671,-16029,65.90169,-4362.712,-1042.407,-202.5115,105.2429,1,0
78.33991,-16065.45,72.13119,-4353.238,-1046.313,-214.315,102.3842,1,0
78.38972,-16072.27,29.30625,-4312.58,-1040.425,-231.3692,129.1451,1,0
78.42292,-16049.76,15.48835,-4312.401,-1040.346,-247.7113,150.5417,1,0
78.47272,-16052.46,36.09187,-4297.803,-1035.852,-268.1953,168.0529,1,0
78.57184,-16045.67,10.98622,-4309.867,-1041.282,-285.4508,146.5426,1,0
78.60495,-16039.38,51.74524,-4279.174,-1032.141,-313.2307,4.643053,1,0
78.65477,-16017.98,59.74535,-4264.56,-1034.023,-306.374,27.35432,1,0
78.70454,-16024.94,60.36492,-4307.712,-1031.044,-302.9474,-35.83473,1,0
78.73772,-16059.13,102.9656,-4319.659,-1037.644,-340.3965,-104.288,1,0
78.78751,-16070.88,163.2067,-4226.816,-1038.268,-340.945,-82.74651,1,0
78.87048,-16110.84,140.4369,-4275.522,-1043.177,-355.3584,-201.4774,1,0
78.92025,-16112.5,125.0714,-4286.257,-1038.062,-439.921,-183.3647,1,0
78.97003,-16114.73,142.0075,-4029.712,-1043.009,-451.4522,-257.1912,1,0
79.01981,-16111.87,178.103,-4055.448,-1042.355,-398.4841,-212.395,1,0
79.06959,-16142.8,185.5864,-3988.152,-1041.846,-407.3453,-199.6101,1,0
79.10278,-16133.05,209.9288,-3909.575,-1037.018,-380.7436,-138.2868,1,0
79.18574,-16107.71,229.4098,-4019.701,-1033.326,-402.4059,-128.6001,1,0
79.23551,-16129.2,167.5904,-3843.072,-1043.807,-447.6978,-378.9498,1,0
79.28529,-16161.04,126.7686,-3572.452,-1042.958,-420.7098,-477.2127,1,0
79.33506,-16191.86,159.7348,-3592.708,-1046.729,-397.181,-471.8582,1,0
79.36825,-16200.8,154.9601,-3582.977,-1040.736,-394.6563,-378.6535,1,0
79.41803,-16201.83,167.8323,-3526.97,-1040.576,-429.008,-364.1375,1,0
79.50099,-16199.04,234.0721,-3483.225,-1036.021,-427.5537,-309.1395,1,0
79.55077,-16253.17,284.5263,-3365.813,-1032.541,-316.1737,2.95632,1,0
79.60055,-16193.45,349.3756,-3517.89,-1038.756,-272.3987,556.2842,1,0
79.65032,-16163.04,147.0547,-3523.583,-1034.653,-225.1042,386.2834,1,0
79.68351,-16173.99,239.1839,-3632.027,-1040.385,-214.8272,410.1388,1,0
79.73328,-16154.55,245.2597,-3624.965,-1040.339,-234.0166,346.4692,1,0
79.83284,-16115.22,312.84,-3608.09,-1031.438,-198.1655,319.5724,1,0
79.86603,-16132.77,291.1055,-3676.757,-1033.503,-150.1583,566.877,1,0
79.9158,-16116.27,322.9136,-3767.516,-1039.527,-155.8133,468.8564,1,0
79.96558,-16102.55,310.3588,-3849.466,-1039.706,-199.2027,444.6075,1,0
80.04855,-16067.73,352.5094,-3869.072,-1048.703,-204.0669,390.5486,1,0
80.13152,-16083.29,326.7917,-3834.244,-1046.704,-188.5512,288.0851,1,0
80.18129,-16146.26,296.8259,-3884.108,-1040.725,-223.9276,215.8626,1,0
80.23107,-16126.83,323.5168,-3805.939,-1040.575,-234.4793,119.6315,1,0
80.28085,-16137.41,342.5791,-3771.721,-1036.026,-183.0658,167.5513,1,0
80.31403,-16153.23,338.0449,-3824.405,-1028.12,-203.4141,100.2934,1,0
80.44678,-16154.18,330.9796,-3748.517,-1030.956,-213.0149,145.2452,1,0
80.49655,-16161.49,310.9299,-3749.39,-1028.715,-181.3999,142.5142,1,0
80.54633,-16134.87,348.5753,-3800.159,-1035.884,-199.9973,93.86499,1,0
80.59611,-16135.51,350.556,-3769.357,-1036.947,-199.1066,132.8631,1,0
80.6127,-16144.85,396.1375,-3704.965,-1037.762,-195.7531,144.7114,1,0
80.71226,-16179.65,380.846,-3816.617,-1033.955,-198.5479,192.2417,1,0
80.76204,-16185.13,397.6539,-3773.645,-1035.48,-164.7726,224.3324,1,0
80.81181,-16186.98,373.6557,-3768.577,-1036.653,-149.3217,166.4327,1,0
80.8616,-16202.68,367.23,-3778.137,-1033.121,-160.1154,148.0654,1,0
80.91137,-16176.88,387.5818,-3719.102,-1030.426,-153.5795,169.4316,1,0
80.99434,-16164.79,395.166,-3757.234,-1032.81,-160.0919,123.962,1,0
81.04411,-16132.21,389.6461,-3765.527,-1030.214,-181.2789,88.91152,1,0
81.0773,-16172.66,402.9227,-3775.317,-1023.809,-164.9008,91.5537,1,0
81.12708,-16198.03,384.0444,-3743.019,-1018.934,-157.4592,118.8895,1,0
81.17686,-16185.19,442.5218,-3700.721,-1024.104,-142.193,98.87077,1,0
81.22663,-16166.42,419.41,-3629.812,-1028.086,-132.5969,74.21059,1,0
81.25982,-16202.96,411.4443,-3618.018,-1031.15,-103.2617,144.3681,1,0
81.35938,-16209.77,388.5209,-3811.018,-1029.07,-96.81508,210.2373,1,0
81.39256,-16205.99,438.4037,-3703.931,-1023.057,-97.09555,224.202,1,0
81.44234,-16206.3,430.927,-3739.549,-1022.908,-89.77362,216.9567,1,0
81.49212,-16205.32,430.5213,-3733.68,-1022.817,-98.51496,142.5412,1,0
