Time,Ax,Ay,Az,Gx,Gy,Gz,Breathing,Ground Truth
8.607054,0,0,0,0,0,0,0,0
8.607054,-16460,-364,-2068,-1184,-124,1462,0,0
8.789586,-16240,-728,-2604,-1136,-201,257,0,0
8.806179,-16540,-324,-2080,-1152,-48,1354,0,0
8.806179,-16620,-816,-2868,-1168,-430,2761,0,0
8.822772,-15968,-908,-2944,-1136,-50,1636,0,0
8.822772,-16216,-1248,-2712,-1152,-38,1592,0,0
8.822772,-16324,-1000,-2972,-1152,25,796,0,0
8.822772,-16024,-1480,-2728,-1136,-331,-303,0,0
8.822772,-16228,-1300,-3192,-1152,-601,483,0,0
8.822772,-16196,-1036,-3192,-1136,-734,315,0,0
8.889146,-16292,-772,-3120,-1152,-639,1287,0,0
8.889146,-16348,-1044,-3300,-1152,-210,1202,0,0
8.955517,-16056,-900,-2948,-1120,-63,743,0,0
8.988707,-16316,-1000,-3260,-1168,219,359,0,0
9.038483,-16260,-992,-3032,-1152,345,668,0,0
9.038483,-16056,-1020,-3060,-1152,371,358,0,0
9.071669,-16172,-1296,-3496,-1120,461,425,0,0
9.088264,-15864,-1328,-3252,-1120,509,-61,0,0
9.121447,-16188,-1512,-3624,-1152,390,481,0,0
9.171597,-16360,-1416,-3304,-1120,149,-27,0,0
9.221412,-16024,-1352,-3000,-1120,-28,120,0,0
9.254611,-16072,-1220,-3296,-1136,225,-362,0,0
9.271208,-16232,-1420,-3308,-1120,128,-326,0,0
9.354206,-16392,-1240,-3288,-1152,-37,12,0,0
9.354206,-16132,-1272,-3200,-1152,-299,388,0,0
9.387403,-16348,-1108,-3168,-1152,-204,528,0,0
9.404003,-16048,-1348,-3356,-1120,-110,550,0,0
9.437199,-16132,-1044,-3408,-1120,26,-15,0,0
9.453797,-16336,-1180,-3128,-1152,72,-72,0,0
9.536798,-16164,-1020,-3076,-1136,39,-189,0,0
9.569995,-16000,-912,-3240,-1152,-52,-387,0,0
9.586594,-16276,-936,-3216,-1168,190,-443,0,0
9.619792,-16336,-1044,-3208,-1120,-120,370,0,0
9.619792,-16192,-1080,-3148,-1136,53,1104,0,0
9.719387,-16116,-1156,-3476,-1152,84,928,0,0
9.752584,-16068,-1124,-3184,-1152,257,-211,0,0
9.752584,-16148,-1360,-2912,-1152,366,263,0,0
9.802382,-16148,-1276,-3492,-1136,253,298,0,0
9.835579,-16192,-1292,-3132,-1136,-5,-41,0,0
9.85218,-16332,-1088,-3236,-1120,-110,-138,0,0
9.901976,-16196,-972,-3196,-1104,641,-1051,0,0
9.901976,-16256,-1216,-3312,-1168,746,-1027,0,0
9.935174,-16320,-924,-2988,-1152,1115,-1094,0,0
9.968371,-16152,-1024,-2980,-1152,1191,-1899,0,0
9.984969,-16284,-1292,-2796,-1120,1048,-2252,0,0
10.03458,-16324,-1520,-2284,-1136,1182,-2368,0,0
10.03458,-16224,-1644,-2520,-1136,595,-772,0,0
10.06796,-16480,-1584,-2312,-1104,375,497,0,0
10.11566,-16232,-1500,-2444,-1168,330,373,0,0
10.11566,-16032,-1772,-2580,-1136,42,-110,0,0
10.16755,-16128,-1732,-2240,-1152,-65,-326,0,0
10.16755,-16100,-1672,-2280,-1152,-160,-263,0,0
10.20076,-16284,-1600,-2152,-1136,-338,95,0,0
10.25055,-16488,-1652,-2336,-1136,-505,170,0,0
10.25055,-16300,-1460,-2144,-1152,-487,237,0,0
10.30034,-16072,-1508,-2388,-1152,-564,148,0,0
10.30034,-16264,-1540,-2272,-1120,-395,-16,0,0
10.35014,-16292,-1652,-2408,-1152,-425,-119,0,0
10.36674,-16316,-1556,-2176,-1104,-166,79,0,0
10.36674,-16376,-1588,-2128,-1152,-64,137,0,0
10.48294,-16312,-1580,-2412,-1152,-108,-7,0,0
10.48294,-16300,-1444,-2300,-1152,34,-21,0,0
10.53273,-16284,-1488,-2392,-1136,-163,28,0,0
10.54933,-16216,-1428,-2168,-1152,87,-80,0,0
10.54933,-16192,-1460,-2408,-1136,-57,19,0,0
10.61573,-16312,-1424,-2176,-1120,-217,-99,0,0
10.61573,-16408,-1368,-2180,-1136,-305,-341,0,0
10.66552,-16340,-1296,-2088,-1104,-467,-338,0,0
10.69872,-16196,-1376,-2100,-1152,-537,-73,0,0
10.69872,-16328,-1400,-1976,-1136,-379,-177,0,0
10.74852,-16692,-1296,-2036,-1120,-100,939,0,0
10.76512,-16380,-1560,-2168,-1136,-19,1322,0,0
10.78172,-15936,-1316,-2852,-1168,-540,687,0,0
10.83151,-16080,-1276,-2348,-1152,-755,-131,0,0
10.84811,-16284,-1460,-2164,-1136,-488,310,0,0
10.88131,-16092,-1556,-2504,-1120,116,262,0,0
10.88131,-16412,-1296,-2412,-1120,-332,-432,0,0
10.91451,-16492,-1236,-2208,-1136,41,-296,0,0
10.94771,-16440,-1312,-2000,-1152,84,29,0,0
10.9643,-16220,-1416,-2108,-1152,9,320,0,0
10.99751,-16344,-1468,-2084,-1120,10,387,0,0
10.99751,-16036,-1452,-2400,-1152,326,261,0,0
11.11322,-16328,-1348,-2144,-1120,80,-183,0,0
11.11322,-16556,-1392,-1768,-1136,82,228,0,0
11.16297,-16052,-1424,-2324,-1120,-12,224,0,0
11.16297,-16220,-1408,-2348,-1152,-49,165,0,0
11.16297,-16296,-1584,-2208,-1152,185,263,0,0
11.21275,-16152,-1540,-2480,-1136,93,260,0,0
11.22934,-16248,-1432,-2428,-1120,-33,-184,0,0
11.26254,-16032,-1620,-2356,-1136,323,13,0,0
11.29572,-15972,-1716,-1884,-1120,1037,305,0,0
11.29572,-16648,-1112,-1992,-1120,590,1779,0,0
11.36209,-16656,-1228,-2636,-1120,-312,632,0,0
11.41187,-16048,-996,-2028,-1152,-1299,-1293,0,0
11.42846,-15932,-1096,-2380,-1152,-1589,-731,0,0
11.44505,-16256,-1112,-1956,-1136,-1032,-212,0,0
11.51143,-16300,-1372,-2164,-1120,-1337,1386,0,0
11.51143,-16624,-964,-2452,-1152,-1426,1303,0,0
11.52802,-16340,-560,-2040,-1120,-1346,458,0,0
11.52802,-16364,152,-2240,-1184,-178,706,0,0
11.5612,-16264,-660,-2516,-1136,-256,517,0,0
11.62758,-16316,-688,-2740,-1120,-384,602,0,0
11.67736,-16048,-408,-2344,-1136,-404,27,0,0
11.67736,-16396,-108,-2128,-1152,-126,377,0,0
11.69395,-16300,-580,-2548,-1152,-336,915,0,0
11.72714,-16208,-536,-2936,-1136,-637,428,0,0
11.77692,-16384,4,-2572,-1152,-780,191,0,0
11.8101,-16320,-180,-2444,-1152,-702,411,0,0
11.8101,-16412,-480,-2624,-1152,-720,531,0,0
11.89306,-16264,-284,-2372,-1168,-584,608,0,0
11.89306,-16324,-48,-2860,-1136,-214,686,0,0
11.92625,-16264,-212,-2816,-1152,-346,526,0,0
11.92625,-16192,8,-2640,-1120,-481,208,0,0
12.0424,-16464,164,-2936,-1136,-168,376,0,0
12.05899,-16360,4,-2972,-1152,-106,32,0,0
12.12536,-16304,-564,-2892,-1168,-434,77,0,0
12.14195,-16388,-424,-2480,-1104,-623,-208,0,0
12.22492,-16236,-308,-2492,-1152,-527,193,0,0
12.22492,-16280,-200,-2640,-1152,-418,340,0,0
12.2747,-16416,-244,-3040,-1152,-175,96,0,0
12.30788,-16484,-68,-2552,-1136,-135,98,0,0
12.30788,-16412,-80,-2656,-1120,-152,502,0,0
12.34107,-16180,-276,-3024,-1120,-101,-139,0,0
12.35766,-16288,-88,-2568,-1152,8,-421,0,0
12.47381,-16576,288,-2408,-1120,-316,443,0,0
12.47381,-16312,200,-2772,-1152,-351,578,0,0
12.52311,-16392,72,-2916,-1152,-278,-150,0,0
12.57288,-16076,176,-2720,-1184,-196,148,0,0
12.57288,-16136,96,-3056,-1136,-144,-44,0,0
12.58948,-16220,196,-2744,-1136,392,-420,0,0
12.58948,-16560,-108,-2936,-1152,65,-784,0,0
12.70556,-16412,-68,-2688,-1152,-207,-1263,0,0
12.72215,-16596,144,-2648,-1152,-723,-1591,0,0
12.72215,-16420,668,-1316,-1104,-1151,-964,0,0
12.73873,-16504,944,-1892,-1136,-921,1926,0,0
12.7719,-16392,1144,-2848,-1136,-952,1441,0,0
12.82166,-16176,892,-2592,-1168,-363,381,0,0
12.83639,-16100,1336,-2448,-1152,733,-3,0,0
12.87143,-16512,1080,-2548,-1088,679,237,0,0
12.87143,-16412,848,-2592,-1168,384,244,0,0
12.9046,-16264,856,-2128,-1120,301,-312,0,0
12.93777,-16384,1200,-2068,-1120,521,317,0,0
12.93777,-16612,848,-2844,-1136,-43,882,0,0
13.00412,-16300,996,-2636,-1120,-222,-18,0,0
13.00412,-16324,1080,-2228,-1168,-54,206,0,0
13.08704,-16444,1208,-2264,-1136,266,409,0,0
13.1368,-16408,1032,-2444,-1136,399,268,0,0
13.1368,-16432,804,-2712,-1120,331,-22,0,0
13.18657,-16376,568,-2692,-1152,135,93,0,0
13.20315,-16272,676,-2460,-1120,20,-63,0,0
13.20315,-16408,936,-2620,-1136,52,434,0,0
13.20315,-16332,924,-2608,-1136,-154,284,0,0
13.25291,-16472,1004,-2776,-1152,-374,-135,0,0
13.30267,-16256,1240,-2144,-1120,-72,-421,0,0
13.30267,-16536,1028,-2320,-1136,-69,313,0,0
13.33584,-16260,812,-2696,-1120,-167,1,0,0
13.33584,-16376,1076,-2480,-1136,-213,-230,0,0
13.40219,-16356,836,-2648,-1120,-251,-317,0,0
13.45195,-16480,508,-2208,-1168,47,-255,0,0
13.45195,-16544,840,-2524,-1152,-765,-129,0,0
13.48511,-16312,2220,-1784,-1136,-530,-775,0,0
13.48511,-16164,2320,-1736,-1104,12,1028,0,0
13.53695,-16440,1948,-2740,-1136,-28,1287,0,0
13.58671,-16240,1788,-2844,-1152,-287,297,0,0
13.6033,-16168,1980,-2240,-1120,27,-89,0,0
13.6033,-16292,2188,-2288,-1152,340,685,0,0
13.6033,-16268,1796,-2748,-1152,69,572,0,0
13.65306,-16156,1808,-2856,-1136,-26,-34,0,0
13.70282,-16220,2040,-2532,-1152,250,-226,0,0
13.75258,-16468,1676,-2436,-1136,343,61,0,0
13.85209,-16296,1404,-2492,-1152,587,4,0,0
13.85209,-16356,1752,-2424,-1120,227,-98,0,0
13.90145,-16252,2236,-2272,-1120,-86,-188,0,0
13.90145,-16352,2188,-2168,-1136,348,197,0,0
13.91844,-16496,1584,-2876,-1120,-58,501,0,0
13.93502,-16252,2124,-2360,-1120,53,2,0,0
13.98478,-16288,1876,-2536,-1120,409,225,0,0
14.03454,-16432,2152,-2408,-1120,263,460,0,0
14.03454,-16208,1744,-2468,-1152,118,520,0,0
14.0843,-16248,2092,-2524,-1136,179,206,0,0
14.0843,-16160,2160,-2660,-1120,330,335,0,0
14.13405,-16268,2460,-2816,-1152,227,213,0,0
14.16722,-16308,2648,-2384,-1152,34,-48,0,0
14.18381,-16364,2364,-2756,-1120,-303,-363,0,0
14.2004,-16244,2200,-2516,-1120,-700,-506,0,0
14.25015,-16172,2180,-1940,-1152,-203,-96,0,0
14.26667,-16440,2124,-2544,-1120,122,450,0,0
14.28333,-16184,2328,-2648,-1136,-68,-12,0,0
14.34952,-16280,2192,-2316,-1120,-97,-125,0,0
14.43261,-16372,2184,-2380,-1120,72,352,0,0
14.43261,-16296,2084,-2536,-1152,-123,367,0,0
14.48236,-16188,2100,-2520,-1152,-269,166,0,0
14.48236,-16176,2336,-2308,-1088,-141,-33,0,0
14.51554,-16316,2268,-2256,-1120,207,349,0,0
14.51554,-16344,1992,-2540,-1136,-86,231,0,0
14.56528,-16268,2032,-2396,-1120,-268,17,0,0
14.59845,-16328,2408,-2360,-1136,-175,63,0,0
14.61496,-16252,2188,-2504,-1120,-216,214,0,0
14.6648,-16324,2252,-2400,-1120,-146,168,0,0
14.69797,-16320,2176,-2508,-1136,16,98,0,0
14.74773,-16268,2092,-2580,-1120,-154,146,0,0
14.76432,-16236,2256,-2320,-1104,-176,115,0,0
14.79749,-16336,2176,-2200,-1120,-120,319,0,0
14.84725,-16332,2172,-2568,-1104,29,210,0,0
14.84725,-16220,2044,-2364,-1120,-18,245,0,0
14.88043,-16236,2016,-2452,-1136,-121,375,0,0
14.93019,-16212,2108,-2244,-1120,-57,206,0,0
14.93019,-16532,2068,-2512,-1136,-151,117,0,0
14.97994,-16288,2072,-2388,-1120,-278,20,0,0
15.06288,-16224,1964,-2620,-1136,-212,-32,0,0
15.06288,-16512,2108,-2312,-1120,-222,179,0,0
15.11264,-16324,2112,-2420,-1152,-214,-73,0,0
15.12922,-16204,2132,-2200,-1104,-240,-218,0,0
15.14581,-16296,2124,-2220,-1136,-181,-22,0,0
15.19557,-16164,2100,-2252,-1168,-100,166,0,0
15.19557,-16252,2112,-2528,-1120,-238,10,0,0
15.24533,-16216,2132,-2020,-1136,-67,53,0,0
15.26192,-16328,2032,-2392,-1152,-61,195,0,0
15.26192,-16320,2056,-2448,-1136,-139,2,0,0
15.26192,-16304,2048,-2352,-1088,-147,-8,0,0
15.26192,-16308,2112,-2144,-1136,-123,34,0,0
15.26192,-16316,2040,-2240,-1152,-90,229,0,0
15.26192,-16284,1988,-2416,-1104,-183,147,0,0
15.26192,-16348,2116,-2216,-1152,-146,-39,0,0
15.54434,-16384,2052,-2172,-1088,-67,154,1,0
15.54434,-16400,1836,-2308,-1120,-148,257,1,0
15.54434,-16224,2136,-2232,-1120,-211,90,1,0
15.6273,-16376,2112,-2136,-1152,-100,17,1,0
15.6273,-16244,2060,-2392,-1152,-32,326,1,0
15.69368,-16344,2024,-2340,-1120,-77,153,1,0
15.74346,-16256,2024,-2328,-1152,-135,234,1,0
15.74346,-16292,1948,-2196,-1136,-45,62,1,0
15.77645,-16312,1960,-2464,-1120,-112,177,1,0
15.79324,-16344,1988,-1988,-1136,-24,313,1,0
15.82643,-16352,2044,-2540,-1120,-58,159,1,0
15.87621,-16404,2004,-2300,-1120,16,160,1,0
15.87621,-16248,1908,-2284,-1072,-26,244,1,0
15.92599,-16344,1936,-2368,-1136,8,408,1,0
16.00896,-16248,2156,-2240,-1120,-12,352,1,0
16.02555,-16260,2016,-2500,-1152,91,533,1,0
16.05874,-16284,2016,-2244,-1120,-87,442,1,0
16.05874,-16232,1860,-2244,-1120,-19,304,1,0
16.10852,-16296,1980,-2460,-1136,155,491,1,0
16.14171,-16480,1824,-2568,-1136,121,542,1,0
16.14171,-16316,1776,-2696,-1120,51,372,1,0
16.19149,-16304,1876,-2816,-1136,-85,84,1,0
16.24127,-16332,1792,-2484,-1152,-161,-34,1,0
16.24127,-16272,1932,-2260,-1088,-32,313,1,0
16.29105,-16268,1784,-2660,-1136,10,221,1,0
16.32405,-16352,1756,-2500,-1120,-182,56,1,0
16.32405,-16316,1896,-2584,-1136,-127,6,1,0
16.37401,-16404,1776,-2828,-1152,-233,74,1,0
16.4072,-16408,1740,-2740,-1120,-463,-241,1,0
16.42379,-16476,1940,-2436,-1120,-380,-218,1,0
16.47357,-16396,1912,-2564,-1120,-567,-122,1,0
16.50676,-16332,1744,-2452,-1120,-487,-309,1,0
16.50676,-16388,1928,-2228,-1136,-382,-50,1,0
16.55655,-16280,1920,-2368,-1136,-384,146,1,0
16.58974,-16264,1744,-2480,-1152,-464,-213,1,0
16.60633,-16396,1868,-2176,-1120,-688,-51,1,0
16.6893,-16476,2056,-2556,-1120,-725,-385,1,0
16.6893,-16404,1868,-1872,-1120,-1063,-938,1,0
16.73908,-16300,2032,-1496,-1120,-383,530,1,0
16.77227,-16344,1804,-2356,-1136,-334,1054,1,0
16.78886,-16156,1928,-2460,-1136,-334,111,1,0
16.80546,-16352,1920,-2232,-1136,-370,112,1,0
16.85524,-16352,2124,-2128,-1120,-466,177,1,0
16.87183,-16212,1924,-2284,-1104,-431,-77,1,0
16.92161,-16248,1888,-2264,-1152,-515,-225,1,0
16.97124,-16456,2132,-2076,-1120,-315,-237,1,0
16.98799,-16248,1936,-2096,-1152,-275,26,1,0
16.98799,-16388,1992,-2280,-1104,-186,149,1,0
17.05437,-16364,1888,-2060,-1120,-288,484,1,0
17.08755,-16332,1820,-2512,-1136,-340,134,1,0
17.13733,-16256,1664,-2148,-1136,-361,84,1,0
17.13733,-16400,1708,-1740,-1168,-546,-119,1,0
17.18712,-16392,1580,-1744,-1120,-218,781,1,0
17.2203,-16248,1408,-2460,-1120,-204,962,1,0
17.2369,-16296,1456,-2464,-1136,-342,189,1,0
17.27008,-16252,1372,-2144,-1136,-311,-113,1,0
17.31987,-16476,1452,-2504,-1104,-428,197,1,0
17.36965,-16312,1524,-2084,-1104,-551,-138,1,0
17.40284,-16368,1480,-2036,-1120,-474,223,1,0
17.41943,-16428,1536,-2132,-1104,-379,-55,1,0
17.45262,-16476,1328,-1976,-1120,-402,-132,1,0
17.48564,-16308,1380,-2196,-1136,-260,232,1,0
17.48564,-16348,1312,-2292,-1152,-440,384,1,0
17.53559,-16456,1328,-2176,-1104,-677,-50,1,0
17.58536,-16316,1472,-1964,-1120,-521,172,1,0
17.58536,-16316,1512,-1920,-1120,-181,478,1,0
17.66833,-16452,1308,-2200,-1152,18,299,1,0
17.71811,-16448,1172,-2484,-1120,-223,181,1,0
17.71811,-16320,1180,-2164,-1152,-234,-175,1,0
17.7679,-16320,1400,-2044,-1120,-178,-39,1,0
17.7679,-16524,1224,-2224,-1136,-231,-15,1,0
17.80108,-16384,1044,-2400,-1136,-272,-18,1,0
17.85086,-16344,1324,-2444,-1088,-328,-208,1,0
17.90065,-16432,1140,-1936,-1104,-293,-151,1,0
17.90065,-16328,1224,-2288,-1152,-307,-107,1,0
18.00021,-16236,1432,-2080,-1120,-314,-610,1,0
18.0334,-16540,1280,-1960,-1136,-319,-428,1,0
18.04999,-16528,1304,-1904,-1120,-431,-391,1,0
18.08318,-16336,1204,-1848,-1168,-364,-538,1,0
18.08318,-16400,916,-1556,-1120,-464,-106,1,0
18.13296,-16368,1212,-1984,-1120,-296,78,1,0
18.16615,-16416,1320,-1864,-1136,-356,-266,1,0
18.18275,-16532,1176,-1368,-1120,-341,142,1,0
18.2158,-16432,1404,-2188,-1136,-562,924,1,0
18.24899,-16376,1068,-1832,-1120,-811,936,1,0
18.26572,-16320,1448,-1920,-1152,-673,641,1,0
18.3155,-16404,1564,-1908,-1136,-203,-141,1,0
18.34904,-16584,1204,-1808,-1120,-175,256,1,0
18.34904,-16304,1272,-2200,-1104,-75,183,1,0
18.39884,-16444,1276,-2016,-1136,-108,-86,1,0
18.43203,-16436,1160,-1892,-1104,-183,-88,1,0
18.48164,-16452,1148,-1824,-1136,-132,-128,1,0
18.48164,-16440,1084,-1928,-1120,-109,129,1,0
18.5316,-16300,1116,-1936,-1120,-131,-25,1,0
18.56479,-16256,1108,-2016,-1152,-116,256,1,0
18.61458,-16248,1588,-1952,-1120,-173,7,1,0
18.63117,-16672,1336,-1652,-1120,-115,-51,1,0
18.66436,-16472,1152,-1808,-1104,-210,207,1,0
18.69755,-16324,1068,-2228,-1088,-59,146,1,0
18.71414,-16440,1240,-1600,-1104,-229,-162,1,0
18.74734,-16392,1084,-1700,-1104,-240,-146,1,0
18.79712,-16400,1044,-1640,-1120,-155,164,1,0
18.81372,-16384,1152,-1680,-1120,-163,197,1,0
18.84691,-16200,1156,-1752,-1136,-164,369,1,0
18.92955,-16516,1184,-1932,-1120,-248,-4,1,0
18.92955,-16448,1212,-1960,-1120,-383,146,1,0
18.97968,-16404,1268,-1788,-1120,-449,149,1,0
19.02947,-16468,1144,-2096,-1152,-699,-160,1,0
19.02947,-16360,1416,-1436,-1152,-395,-446,1,0
19.06265,-16392,1516,-1460,-1104,-338,138,1,0
19.12903,-16396,1216,-1824,-1088,-54,327,1,0
19.12903,-16400,1200,-1912,-1104,-149,83,1,0
19.16223,-16408,1160,-1948,-1120,-182,185,1,0
19.19542,-16476,1268,-1988,-1120,-256,77,1,0
19.21201,-16460,1164,-1872,-1136,-214,50,1,0
19.2452,-16408,1252,-1644,-1120,-163,238,1,0
19.29499,-16452,1340,-1652,-1072,-107,362,1,0
19.29499,-16392,1244,-1884,-1104,-124,313,1,0
19.34478,-16348,1624,-1944,-1088,-247,533,1,0
19.39456,-16468,1232,-1612,-1088,-9,182,1,0
19.39456,-16448,1256,-1632,-1120,-137,268,1,0
19.42776,-16364,1272,-1584,-1104,-52,111,1,0
19.47738,-16532,1484,-1524,-1088,188,397,1,0
19.52732,-16460,1348,-1884,-1120,268,249,1,0
19.52732,-16392,788,-2088,-1152,122,121,1,0
19.56052,-16296,1080,-2028,-1120,37,546,1,0
19.6103,-16460,1268,-1992,-1136,-151,82,1,0
19.6103,-16404,1296,-1864,-1120,-40,342,1,0
19.66009,-16416,1316,-2068,-1088,-13,406,1,0
19.69328,-16496,1164,-1984,-1136,-157,122,1,0
19.70987,-16400,1128,-1984,-1120,-315,140,1,0
19.74306,-16448,1336,-1904,-1088,-231,80,1,0
19.79285,-16500,1232,-1592,-1136,-183,92,1,0
19.87582,-16348,1140,-1872,-1120,-41,242,1,0
19.89242,-16404,1120,-1920,-1088,-100,216,1,0
19.92561,-16464,1136,-1876,-1120,-260,-29,1,0
19.9754,-16524,1220,-1952,-1120,-272,73,1,0
19.9754,-16344,1400,-1524,-1120,-88,6,1,0
20.00859,-16432,1336,-1872,-1088,-154,245,1,0
20.02518,-16336,1480,-1940,-1104,44,-204,1,0
20.0749,-16412,956,-1832,-1120,36,220,1,0
20.10812,-16352,1060,-2064,-1104,-13,140,1,0
20.10812,-16460,1016,-1972,-1104,-308,-273,1,0
20.14135,-16476,1248,-1408,-1120,-231,-120,1,0
20.19114,-16500,1208,-1848,-1120,-141,740,1,0
20.20756,-16360,1208,-1932,-1120,-84,-221,1,0
20.24092,-16524,1152,-1740,-1136,-74,323,1,0
20.29071,-16300,1196,-1964,-1136,-131,125,1,0
20.32374,-16456,1240,-2096,-1120,-208,194,1,0
20.32374,-16436,1272,-1852,-1120,-226,-53,1,0
20.37369,-16428,1416,-1804,-1152,-18,298,1,0
20.42348,-16420,1148,-2020,-1104,-69,46,1,0
20.42348,-16360,1216,-1792,-1104,-119,199,1,0
20.47326,-16392,1172,-1720,-1088,-107,194,1,0
20.50641,-16416,1076,-2036,-1088,-113,473,1,0
20.50641,-16468,1140,-2028,-1120,-319,-45,1,0
20.60603,-16388,1308,-1412,-1120,-159,-280,1,0
20.65581,-16524,1112,-1936,-1120,-114,441,1,0
20.65581,-16580,944,-2240,-1136,-283,-433,1,0
20.689,-16452,988,-1596,-1136,-393,-246,1,0
20.7056,-16400,1372,-1668,-1104,-195,-163,1,0
20.73879,-16516,1248,-1480,-1120,-162,-2,1,0
20.77198,-16472,1260,-1484,-1120,-178,263,1,0
20.82177,-16416,1232,-1884,-1152,-110,117,1,0
20.82177,-16336,1196,-1852,-1136,-362,-59,1,0
20.92116,-16464,1280,-1608,-1104,-112,25,1,0
20.92116,-16476,1176,-1716,-1136,-83,385,1,0
20.97112,-16500,1392,-1588,-1136,-138,26,1,0
20.98772,-16404,1124,-1648,-1088,-212,164,1,0
21.00432,-16464,1208,-1880,-1152,-224,378,1,0
21.0541,-16300,1272,-1688,-1120,-214,-174,1,0
21.08729,-16500,1120,-1476,-1120,-218,21,1,0
21.10381,-16388,1252,-1392,-1120,-42,289,1,0
21.15368,-16428,1216,-1760,-1104,-89,471,1,0
21.15368,-16280,1412,-1744,-1088,-120,19,1,0
21.18686,-16412,1136,-1444,-1104,-74,188,1,0
21.23665,-16584,1288,-1560,-1104,-17,394,1,0
21.23665,-16440,1088,-1708,-1104,-100,234,1,0
21.28644,-16384,1112,-1608,-1136,-95,81,1,0
21.31962,-16408,1148,-2128,-1104,-141,177,1,0
21.36941,-16416,1300,-1752,-1104,-246,-37,1,0
21.36941,-16456,1176,-1428,-1104,-275,-104,1,0
21.40181,-16352,1260,-1236,-1136,-31,215,1,0
21.45239,-16540,1004,-1928,-1088,-76,372,1,0
21.46898,-16380,1080,-1896,-1136,-91,33,1,0
21.48558,-16356,1176,-2168,-1120,-388,-125,0,0
21.55196,-16472,1440,-1452,-1088,-550,-349,0,0
21.55196,-16672,1244,-1380,-1088,-310,326,0,0
21.60175,-16196,1328,-1460,-1088,-84,377,0,0
21.63494,-16396,1340,-1824,-1120,-42,405,0,0
21.66813,-16536,1236,-1796,-1104,-137,37,0,0
21.68473,-16344,1212,-2024,-1088,-148,253,0,0
21.73451,-16396,1276,-1476,-1120,-159,-67,0,0
21.76752,-16552,1112,-1472,-1152,-79,426,0,0
21.81749,-16480,1292,-1604,-1120,-113,253,0,0
21.81749,-16472,1132,-1776,-1120,-107,33,0,0
21.86728,-16488,1044,-1788,-1152,-41,336,0,0
21.91706,-16428,1200,-1956,-1120,-173,-36,0,0
21.95026,-16248,1220,-1840,-1136,-414,-415,0,0
21.96685,-16516,1480,-1124,-1152,-140,73,0,0
22.00004,-16544,1144,-1600,-1136,-106,484,0,0
22.04983,-16252,1208,-1748,-1136,4,183,0,0
22.04983,-16464,1128,-1604,-1088,-36,95,0,0
22.0827,-16520,1028,-1540,-1104,12,380,0,0
22.13273,-16396,1136,-1864,-1088,-40,341,0,0
22.13273,-16328,1140,-1688,-1120,-31,-6,0,0
22.1821,-16468,1156,-1536,-1136,57,539,0,0
22.23186,-16516,1032,-1860,-1120,6,248,0,0
22.24846,-16332,1088,-1652,-1104,-187,-42,0,0
22.26505,-16404,952,-1660,-1120,-109,189,0,0
22.31482,-16492,1284,-1508,-1088,-87,166,0,0
22.3646,-16400,1128,-1656,-1088,-42,280,0,0
22.3646,-16432,1160,-2028,-1104,-49,130,0,0
22.41437,-16440,1208,-1568,-1120,-116,80,0,0
22.49733,-16476,928,-1708,-1104,-148,286,0,0
22.49733,-16504,1092,-1924,-1120,-283,-81,0,0
22.54711,-16404,1260,-1368,-1120,-224,-156,0,0
22.58029,-16516,1272,-1540,-1088,-36,316,0,0
22.59688,-16488,1244,-1560,-1104,-36,309,0,0
22.63006,-16400,1040,-1824,-1104,-126,151,0,0
22.66325,-16456,1168,-1716,-1120,-150,5,0,0
22.66325,-16460,1148,-1704,-1120,-72,216,0,0
22.72961,-16476,1128,-1448,-1120,-42,318,0,0
22.7462,-16496,1100,-2020,-1120,-88,242,0,0
22.7462,-16404,1116,-1580,-1120,-66,-31,0,0
22.81256,-16340,1128,-1848,-1104,8,395,0,0
22.86234,-16512,1160,-1900,-1120,-84,157,0,0
22.89552,-16328,1252,-1828,-1104,-80,171,0,0
22.91211,-16404,1360,-1704,-1120,-28,183,0,0
22.9287,-16416,1200,-1800,-1104,52,281,0,0
22.9287,-16392,1108,-1800,-1120,-56,365,0,0
22.99507,-16496,1108,-1760,-1120,-45,59,0,0
23.04484,-16416,1100,-1800,-1120,-45,357,0,0
23.06143,-16484,1164,-1864,-1104,-58,255,0,0
23.07803,-16268,1200,-1528,-1088,-102,233,0,0
23.12779,-16388,1272,-1696,-1104,-1,197,0,0
23.17758,-16440,1196,-1780,-1104,-11,186,0,0
23.21076,-16488,1044,-1920,-1088,11,443,0,0
23.26053,-16416,1168,-2000,-1120,-96,195,0,0
23.26053,-16408,1220,-1640,-1136,-72,108,0,0
23.29372,-16484,1192,-1572,-1088,-6,333,0,0
23.34349,-16456,1220,-1916,-1088,65,429,0,0
23.36008,-16352,1140,-1948,-1088,-88,241,0,0
23.37668,-16412,1080,-1908,-1104,-147,259,0,0
23.42645,-16476,1076,-1908,-1136,-192,290,0,0
23.44304,-16272,1384,-1508,-1120,-58,147,0,0
23.526,-16528,1344,-1840,-1104,111,491,0,0
23.54259,-16448,1208,-1940,-1104,139,380,0,0
23.55919,-16448,980,-2064,-1136,-51,356,0,0
23.55919,-16372,1220,-1724,-1104,-2,270,0,0
23.62555,-16576,1136,-1768,-1104,-147,590,0,0
23.65873,-16316,1268,-1720,-1104,213,353,0,0
23.65873,-16392,1316,-1968,-1136,215,895,0,0
23.7085,-16456,1232,-1888,-1088,261,551,0,0
23.74169,-16352,1256,-1700,-1136,338,812,0,0
23.74169,-16572,804,-1960,-1120,434,925,0,0
23.84124,-16452,1204,-2440,-1104,238,763,0,0
23.87442,-16440,1088,-2336,-1104,13,355,0,0
23.89101,-16428,1240,-1916,-1104,228,443,0,0
23.94079,-16348,1196,-2236,-1088,332,866,0,0
23.94079,-16448,1148,-2244,-1120,353,479,0,0
23.99056,-16376,1032,-2248,-1120,263,666,0,0
24.00715,-16360,956,-2476,-1088,205,807,0,0
24.07352,-16408,1192,-2380,-1088,201,568,0,0
24.07352,-16392,1104,-2132,-1104,235,578,0,0
24.12366,-16364,1112,-2456,-1136,293,804,0,0
24.14025,-16364,1160,-2484,-1088,214,455,0,0
24.15685,-16408,1004,-2524,-1120,131,458,0,0
24.20673,-16180,1140,-2604,-1120,134,468,0,0
24.20673,-16248,1052,-2448,-1104,72,91,0,0
24.25655,-16292,1060,-2248,-1072,215,396,0,0
24.28977,-16456,1212,-2704,-1088,231,247,0,0
24.30638,-16360,884,-2328,-1120,198,404,0,0
24.32298,-16372,928,-2564,-1088,143,942,0,0
24.3728,-16420,1080,-2492,-1088,236,451,0,0
24.38941,-16372,1060,-2512,-1104,210,773,0,0
24.42239,-16448,1044,-2708,-1072,105,769,0,0
24.47242,-16320,856,-2820,-1120,-14,601,0,0
24.48902,-16124,1112,-2528,-1152,127,471,0,0
24.50563,-16396,1168,-2760,-1120,274,929,0,0
24.57206,-16412,948,-2968,-1120,118,699,0,0
24.60528,-16224,1000,-2836,-1136,92,303,0,0
24.60528,-16164,956,-2748,-1120,168,758,0,0
24.6551,-16240,1016,-2896,-1120,177,467,0,0
24.68832,-16256,896,-2980,-1104,248,754,0,0
24.70493,-16368,936,-3060,-1104,307,595,0,0
24.78796,-16300,840,-2948,-1104,337,573,0,0
24.83778,-16284,944,-3196,-1088,233,517,0,0
24.85439,-16344,928,-2908,-1104,190,362,0,0
24.88709,-16304,820,-3212,-1120,119,327,0,0
24.90353,-16248,816,-3028,-1120,199,511,0,0
24.9203,-16280,820,-3068,-1120,97,384,0,0
24.97006,-16316,1020,-3124,-1136,19,406,0,0
24.97006,-16152,988,-2892,-1120,189,546,0,0
25.01986,-16232,904,-3432,-1136,45,172,0,0
25.01986,-16304,800,-3156,-1104,-61,204,0,0
25.05305,-16164,916,-3132,-1072,76,301,0,0
25.10257,-16336,912,-3356,-1136,177,485,0,0
25.10257,-16164,888,-3244,-1120,125,326,0,0
25.15263,-16200,740,-3348,-1120,121,370,0,0
25.18583,-16240,784,-3400,-1120,89,253,0,0
25.23562,-16284,788,-3224,-1088,69,167,0,0
25.23562,-16268,812,-3212,-1088,61,670,0,0
25.26882,-16264,936,-3040,-1088,132,425,0,0
25.33521,-16168,892,-3232,-1088,327,493,0,0
25.33521,-16256,916,-3580,-1120,174,542,0,0
25.3518,-16264,840,-3504,-1120,171,233,0,0
25.3518,-16288,780,-3408,-1104,63,393,0,0
25.41819,-16292,840,-3188,-1088,145,331,0,0
25.46799,-16228,688,-3388,-1072,132,458,0,0
25.46799,-16204,764,-3296,-1104,185,371,0,0
25.51778,-16116,756,-3312,-1088,187,640,0,0
25.55097,-16200,720,-3668,-1088,182,323,0,0
25.55097,-16248,700,-3620,-1120,97,194,0,0
25.60077,-16096,784,-3388,-1120,221,331,0,0
25.65056,-16160,656,-3676,-1088,169,403,0,0
25.65056,-16160,928,-3444,-1088,96,314,0,0
25.73355,-16240,924,-3256,-1120,363,435,0,0
25.78334,-16252,772,-3436,-1088,406,724,0,0
25.83313,-16252,592,-3972,-1104,174,640,0,0
25.83313,-16144,716,-3932,-1088,-113,157,0,0
25.86633,-16100,844,-3336,-1104,117,-25,0,0
25.86633,-16268,748,-3668,-1104,66,216,0,0
25.91612,-16160,740,-3732,-1088,-33,256,0,0
25.96591,-16112,972,-3336,-1088,113,-390,0,0
25.96591,-16280,684,-3548,-1088,128,423,0,0
25.99911,-16032,648,-3648,-1088,111,442,0,0
26.0489,-16096,700,-4036,-1120,69,55,0,0
26.0489,-16284,728,-3588,-1088,-63,-3,0,0
26.13189,-16184,760,-3460,-1104,7,474,0,0
26.14849,-16184,740,-3700,-1088,67,318,0,0
26.18168,-16168,876,-3692,-1104,45,24,0,0
26.18168,-16256,660,-3620,-1120,21,214,0,0
26.23147,-16144,828,-3816,-1136,224,294,0,0
26.28126,-16308,712,-3560,-1136,-5,362,0,0
26.28126,-16168,852,-3432,-1120,158,180,0,0
26.33106,-16184,656,-3820,-1120,128,376,0,0
26.36425,-16172,752,-3596,-1088,35,227,0,0
26.36425,-16184,820,-3640,-1056,66,294,0,0
26.46383,-16244,892,-3644,-1104,88,347,0,0
26.46383,-16180,848,-3836,-1088,59,316,0,0
26.49703,-16196,772,-3508,-1120,119,238,0,0
26.54682,-16268,740,-3628,-1088,149,223,0,0
26.54682,-16088,820,-3852,-1104,129,322,0,0
26.59661,-16240,732,-3572,-1104,112,200,0,0
26.59661,-16236,800,-3860,-1088,73,137,0,0
26.62981,-16084,796,-3708,-1120,172,191,0,0
26.6796,-16220,736,-3768,-1104,15,285,0,0
26.6796,-16200,780,-3752,-1120,-5,180,0,0
26.77918,-16100,824,-3784,-1104,38,133,0,0
26.77918,-16284,952,-3700,-1120,73,237,0,0
26.81238,-16140,792,-3856,-1120,-7,213,0,0
26.81238,-16100,748,-3760,-1120,-27,270,0,0
26.86217,-16028,788,-3852,-1104,98,302,0,0
26.91196,-16176,784,-3704,-1088,59,370,0,0
26.91196,-16128,700,-3952,-1120,48,407,0,0
26.96176,-16060,768,-3820,-1088,-90,210,0,0
26.97835,-16288,792,-3776,-1104,0,281,0,0
26.97835,-16084,824,-3956,-1120,-3,323,0,0
27.04474,-16172,884,-3772,-1104,-64,193,0,0
27.07794,-16164,800,-3840,-1072,13,211,0,0
27.09454,-16084,760,-3720,-1104,-46,234,0,0
27.11113,-16032,804,-3924,-1120,-33,241,0,0
27.16092,-16108,916,-4044,-1120,-112,189,0,0
27.19412,-16128,816,-3868,-1104,-32,149,0,0
27.22731,-16076,820,-3920,-1088,-130,663,0,0
27.26051,-16156,828,-3792,-1088,-11,639,0,0
27.3098,-16212,784,-3944,-1104,71,449,0,0
27.3098,-16112,836,-4004,-1152,-21,281,0,0
27.35959,-16076,776,-3780,-1120,17,180,0,0
27.39274,-16176,796,-3952,-1104,65,270,0,0
27.40932,-16128,768,-4000,-1104,-15,248,0,0
27.42591,-16100,936,-3920,-1088,55,259,0,0
27.49226,-16100,936,-3964,-1072,128,357,0,0
27.49226,-16120,792,-4012,-1120,129,452,0,0
27.54202,-15932,780,-3896,-1088,103,525,0,0
27.5752,-16180,540,-4028,-1136,162,393,0,0
27.62496,-16156,576,-3944,-1104,134,463,0,0
27.62496,-16092,604,-4196,-1104,-3,331,0,0
27.67472,-16192,748,-3924,-1120,-57,200,0,0
27.7079,-16044,660,-3884,-1088,35,289,0,0
27.72448,-16048,624,-4284,-1088,21,210,0,0
27.75747,-16076,588,-4276,-1088,-2,352,0,0
27.79084,-16112,736,-4152,-1104,-83,451,0,0
27.79084,-16100,628,-4072,-1104,-3,366,0,0
27.85719,-16060,708,-3948,-1104,83,218,0,0
27.87377,-16092,648,-4332,-1056,5,353,0,0
27.89036,-16048,620,-4372,-1088,-24,310,0,0
27.94013,-16104,656,-4064,-1088,-65,185,0,0
27.9733,-16216,736,-4012,-1104,-49,284,0,0
27.98989,-16100,640,-4244,-1104,-51,189,0,0
28.07283,-16112,664,-4216,-1120,-77,256,0,0
28.10599,-16116,676,-4268,-1088,-11,332,0,0
28.10599,-16060,612,-4428,-1088,-28,198,0,0
28.15576,-16012,600,-4188,-1136,-69,182,0,0
28.17235,-16028,648,-4192,-1088,53,310,0,0
28.20536,-16104,640,-4112,-1104,49,496,0,0
28.25529,-15932,676,-4180,-1104,12,729,0,0
28.25529,-16056,768,-3912,-1088,239,387,0,0
28.28846,-16032,704,-4396,-1088,146,454,0,0
28.33859,-16028,472,-4468,-1056,-2,256,0,0
28.33859,-16032,660,-4300,-1072,-36,164,0,0
28.38836,-15960,656,-4284,-1104,-37,172,0,0
28.43814,-16124,592,-4444,-1104,-13,225,0,0
28.43814,-16132,716,-4320,-1120,-81,318,0,0
28.48791,-15972,716,-4312,-1104,-12,188,0,0
28.50451,-15972,620,-4592,-1088,93,-11,0,0
28.52109,-16140,700,-4244,-1072,-99,-81,0,0
28.57086,-16088,732,-4132,-1072,51,376,0,0
28.62064,-15960,732,-4372,-1104,-40,312,0,0
28.63723,-15980,672,-4460,-1104,-56,122,0,0
28.63723,-16028,704,-4252,-1104,33,132,0,0
28.75336,-16108,736,-4408,-1120,39,253,0,0
28.75336,-16256,132,-4540,-1104,257,-241,0,0
28.78654,-15944,848,-4596,-1072,13,75,0,0
28.80313,-16132,772,-4004,-1136,-68,65,0,0
28.83631,-16000,632,-4216,-1104,-45,50,0,0
28.86942,-16052,568,-4192,-1120,-32,188,0,0
28.88608,-16092,752,-4376,-1104,-88,144,0,0
28.91926,-16040,724,-4412,-1104,-104,145,0,0
28.96903,-15972,808,-4120,-1120,-131,98,0,0
28.98561,-16040,768,-4224,-1088,-51,265,0,0
29.06856,-16104,756,-4360,-1104,-179,317,0,0
29.06856,-16016,780,-4336,-1088,-123,269,0,0
29.10174,-16004,816,-4496,-1120,-58,171,0,0
29.15151,-16028,700,-4344,-1104,-41,159,0,0
29.15151,-16068,600,-4300,-1104,-125,185,0,0
29.18469,-15904,692,-4316,-1088,-175,198,1,0
29.23446,-16008,632,-4396,-1104,-126,212,1,0
29.25105,-16000,792,-4436,-1104,-200,125,1,0
29.30082,-16168,608,-4340,-1088,-182,115,1,0
29.38377,-16060,612,-4380,-1088,-146,159,1,0
29.43354,-16032,844,-4184,-1088,-138,172,1,0
29.43354,-16004,748,-4308,-1088,-127,263,1,0
29.45014,-16040,752,-4368,-1104,-23,162,1,0
29.45014,-16032,864,-4504,-1120,-38,245,1,0
29.5165,-16008,684,-4376,-1120,-81,258,1,0
29.54967,-15984,640,-4436,-1104,-38,198,1,0
29.56627,-16040,720,-4436,-1120,-108,174,1,0
29.59945,-16060,772,-4392,-1088,-3,131,1,0
29.64922,-16060,700,-4280,-1104,-90,158,1,0
29.64922,-16096,756,-4412,-1088,-153,186,1,0
29.6824,-15988,664,-4516,-1104,-142,204,1,0
29.74876,-15988,672,-4360,-1120,-143,82,1,0
29.74876,-16056,716,-4232,-1104,2,166,1,0
29.76534,-16072,780,-4560,-1088,-71,148,1,0
29.81512,-16004,768,-4348,-1072,-138,148,1,0
29.83171,-15908,748,-4424,-1088,-77,129,1,0
29.8483,-16036,664,-4340,-1088,-57,119,1,0
29.91466,-16032,776,-4308,-1104,-81,74,1,0
29.91466,-15920,684,-4436,-1072,-120,159,1,0
29.96443,-16076,684,-4556,-1088,-118,80,1,0
29.98102,-16060,660,-4400,-1120,-148,32,1,0
29.9976,-15988,784,-4244,-1136,-96,94,1,0
30.06396,-16064,744,-4400,-1120,-181,99,1,0
30.08055,-16008,720,-4376,-1088,-50,20,1,0
30.14692,-16048,728,-4252,-1088,-136,65,1,0
30.14692,-16060,672,-4308,-1104,-200,95,1,0
30.19669,-15960,732,-4452,-1088,-138,84,1,0
30.22987,-16064,832,-4256,-1104,-183,-77,1,0
30.27964,-16068,692,-4356,-1136,-341,-27,1,0
30.27964,-15992,640,-4312,-1104,-470,194,1,0
30.32941,-16056,760,-4400,-1088,-237,133,1,0
30.37918,-16084,708,-4356,-1088,-382,-132,1,0
30.41236,-16020,556,-4288,-1120,-355,-70,1,0
30.41236,-16068,640,-4240,-1104,-368,-95,1,0
30.46213,-15992,756,-4228,-1104,-430,198,1,0
30.5119,-16048,740,-4332,-1120,-415,-38,1,0
30.54508,-16112,872,-4124,-1072,-269,-161,1,0
30.56167,-16068,804,-4220,-1104,-242,30,1,0
30.59485,-15996,776,-4204,-1088,-220,63,1,0
30.62803,-16040,792,-4240,-1120,-234,18,1,0
30.69439,-16064,876,-4084,-1104,-284,4,1,0
30.72757,-16048,896,-4012,-1088,-353,-127,1,0
30.72757,-16004,672,-4044,-1056,-276,-120,1,0
30.76075,-16088,776,-4096,-1120,-246,-176,1,0
30.77734,-16180,796,-3920,-1088,-237,-93,1,0
30.82711,-16012,640,-4128,-1120,-249,128,1,0
30.86029,-16060,832,-4100,-1104,-328,-183,1,0
30.87688,-16040,832,-4024,-1088,-223,-31,1,0
30.95984,-16220,760,-4088,-1072,-330,-230,1,0
30.99284,-16136,680,-3832,-1056,-229,-118,1,0
30.99284,-16132,780,-4224,-1088,-300,172,1,0
31.04279,-16144,988,-4200,-1120,-517,-456,1,0
31.09256,-16072,988,-3768,-1120,-361,-454,1,0
31.09256,-16072,960,-3720,-1088,-214,45,1,0
31.14232,-16208,764,-3860,-1088,-263,-61,1,0
31.1755,-16172,892,-3808,-1104,-325,-172,1,0
31.1755,-16144,992,-3796,-1104,-326,-260,1,0
31.22528,-16184,736,-3936,-1072,-423,-30,1,0
31.27505,-16128,788,-3856,-1120,-526,-173,1,0
31.32482,-16056,976,-3868,-1088,-518,-238,1,0
31.358,-16268,1112,-4008,-1088,-556,-79,1,0
31.358,-16180,1136,-3828,-1120,-441,-248,1,0
31.40777,-16108,1152,-3948,-1088,-380,-351,1,0
31.44095,-16104,960,-3668,-1072,-399,-182,1,0
31.44095,-16264,936,-3644,-1104,-377,-147,1,0
31.49072,-16224,992,-3892,-1104,-404,-86,1,0
31.54049,-16044,1340,-3672,-1088,-504,-253,1,0
31.54049,-16164,1116,-3264,-1088,-349,-158,1,0
31.57367,-16180,1024,-3540,-1120,-251,-293,1,0
31.62344,-16208,968,-3348,-1088,-195,-176,1,0
31.67321,-16324,868,-3720,-1104,-247,211,1,0
31.70639,-16312,952,-3732,-1088,-483,84,1,0
31.72298,-16176,984,-3676,-1104,-453,49,1,0
31.75616,-16216,1192,-3208,-1104,-449,-428,1,0
31.77275,-16168,1156,-3064,-1072,-267,-181,1,0
31.80593,-16292,1008,-3460,-1120,-229,73,1,0
31.85388,-16148,1040,-3668,-1088,-362,-217,1,0
31.85388,-16272,1060,-3536,-1104,-373,-456,1,0
31.90547,-16344,1180,-3164,-1072,-310,-441,1,0
31.98842,-16300,1200,-3080,-1088,-273,-248,1,0
31.98842,-16296,960,-3340,-1088,-293,279,1,0
32.0216,-16236,1132,-3596,-1136,-312,-260,1,0
32.03819,-16168,1012,-3144,-1104,-338,-185,1,0
32.08749,-16292,1192,-3196,-1072,-394,-283,1,0
32.10408,-16228,1252,-2876,-1120,-272,-206,1,0
32.17044,-16300,1136,-3280,-1104,-274,-118,1,0
32.17044,-16392,992,-3236,-1120,-241,-157,1,0
32.22021,-16252,1052,-3116,-1088,-275,-7,1,0
32.30316,-16320,1180,-3132,-1104,-347,-255,1,0
32.30316,-16344,944,-2880,-1104,-291,110,1,0
32.33634,-16200,1124,-3096,-1136,-217,291,1,0
32.4027,-16348,1156,-3140,-1088,-215,-67,1,0
32.4027,-16284,1256,-3148,-1120,-194,76,1,0
32.43588,-16296,1268,-3188,-1104,-175,-299,1,0
32.43588,-16324,1040,-2800,-1104,-168,-71,1,0
32.48565,-16280,1060,-3028,-1088,-232,139,1,0
32.51883,-16288,1084,-3132,-1104,-430,-147,1,0
32.51883,-16276,1084,-2832,-1088,-347,-32,1,0
32.61837,-16196,1156,-3020,-1120,-481,-84,1,0
32.66814,-16412,988,-2744,-1088,-489,-419,1,0
32.66814,-16400,396,-2056,-1104,-1140,874,1,0
32.70132,-16080,2024,-3212,-1104,-547,765,1,0
32.71776,-16180,1000,-2952,-1072,-96,-404,1,0
32.7345,-16340,1200,-2916,-1120,-175,41,1,0
32.80086,-16192,1228,-2692,-1088,-46,-168,1,0
32.80086,-16368,1324,-2852,-1072,-160,270,1,0
32.85063,-16236,1376,-2928,-1120,-22,-20,1,0
32.85063,-16272,1208,-2872,-1088,122,214,1,0
32.88364,-16336,1184,-3368,-1072,69,178,1,0
32.93358,-16212,1092,-3148,-1120,-29,-64,1,0
32.96676,-16260,1116,-3072,-1120,-157,-47,1,0
32.98335,-16352,1140,-2936,-1056,-250,-199,1,0
33.03312,-16272,1004,-2756,-1136,-145,145,1,0
33.04971,-16284,1188,-3028,-1088,-164,42,1,0
33.11607,-16396,1048,-3088,-1088,-330,-159,1,0
33.11607,-16264,1096,-2920,-1120,-425,16,1,0
33.16569,-16252,1160,-2940,-1072,-535,184,1,0
33.19902,-16436,1248,-2776,-1120,-595,-368,1,0
33.24879,-16404,1176,-2368,-1072,-500,-212,1,0
33.24879,-16336,1316,-2676,-1072,-105,10,1,0
33.28197,-16428,1088,-2952,-1104,-117,311,1,0
33.34832,-16448,1176,-2700,-1088,-146,-156,1,0
33.34832,-16356,1208,-2688,-1104,-194,80,1,0
33.3815,-16248,1060,-2636,-1088,-136,272,1,0
33.41468,-16216,1100,-3044,-1088,-291,207,1,0
33.48104,-16208,1192,-2444,-1088,-404,-446,1,0
33.48104,-16248,1256,-2508,-1120,-291,183,1,0
33.51423,-16348,1172,-2656,-1088,-131,47,1,0
33.51423,-16472,1180,-2616,-1136,-163,4,1,0
33.58059,-16208,1152,-2684,-1072,-112,142,1,0
33.59718,-16316,1184,-2828,-1088,-194,30,1,0
33.64695,-16208,1036,-2736,-1104,-195,88,1,0
33.66354,-16424,1120,-2588,-1088,-282,-20,1,0
33.69672,-16448,1096,-2652,-1120,-302,-95,1,0
33.74649,-16244,1060,-2464,-1072,-197,-48,1,0
33.77967,-16428,1184,-2740,-1120,-434,104,1,0
33.77967,-16484,1236,-2268,-1072,-227,28,1,0
33.84603,-16316,1264,-2532,-1120,-231,281,1,0
33.86262,-16280,1236,-2584,-1088,-207,69,1,0
33.86262,-16372,1400,-2516,-1120,-232,212,1,0
33.91239,-16320,1132,-2488,-1136,-147,-159,1,0
33.96201,-16380,1184,-2696,-1088,-150,472,1,0
33.96201,-16316,1356,-2720,-1072,-55,-91,1,0
34.01193,-16308,1148,-2468,-1088,-104,204,1,0
34.0617,-16388,1008,-2700,-1120,-122,86,1,0
34.11147,-16188,1292,-2436,-1104,-184,17,1,0
34.14465,-16388,1188,-2412,-1120,-73,30,1,0
34.16124,-16440,1200,-2416,-1072,-63,221,1,0
34.17733,-16336,1196,-2452,-1104,-37,308,1,0
34.24369,-16328,1032,-2724,-1088,-237,208,1,0
34.29345,-16276,1200,-2564,-1104,-272,60,1,0
34.29345,-16288,1344,-2388,-1120,-262,238,1,0
34.32663,-16280,1236,-2544,-1120,-106,136,1,0
34.34302,-16372,1432,-2472,-1104,-53,5,1,0
34.35981,-16248,1248,-2524,-1104,91,251,1,0
34.42617,-16428,1104,-2828,-1056,34,363,1,0
34.50912,-16492,1092,-2836,-1104,-154,139,1,0
34.50912,-16432,1224,-2872,-1088,-293,92,1,0
34.59206,-16344,1496,-2112,-1088,-245,-84,1,0
34.60865,-16348,1272,-2572,-1088,-93,595,1,0
34.64183,-16224,1252,-2604,-1088,-74,24,1,0
34.64183,-16324,1208,-2708,-1072,-39,112,1,0
34.67501,-16596,1188,-2828,-1120,39,339,1,0
34.6916,-16228,1248,-2776,-1088,-151,-140,1,0
34.74137,-16316,1268,-2332,-1104,-243,-105,1,0
34.75796,-16456,1316,-2368,-1104,-149,422,1,0
34.77455,-16416,1268,-2636,-1120,-107,101,1,0
34.82431,-16272,1264,-2344,-1072,-53,115,1,0
34.92385,-16336,1184,-2652,-1104,-2,303,1,0
34.92385,-16268,1268,-2472,-1072,-52,-48,1,0
34.95702,-16396,1220,-2484,-1104,-45,317,1,0
34.95702,-16380,1384,-2696,-1104,-16,218,1,0
35.00679,-16456,1080,-2740,-1104,-164,203,1,0
35.00679,-16196,1300,-2328,-1120,-141,41,1,0
35.03997,-16408,1432,-2548,-1104,-106,122,1,0
35.08974,-16476,1068,-2484,-1088,-18,201,1,0
35.08974,-16332,1288,-2768,-1088,-55,165,1,0
35.13951,-16384,1156,-2368,-1104,-226,-209,1,0
35.18928,-16392,1084,-2416,-1104,-172,247,1,0
35.22246,-16488,1244,-2732,-1120,-264,166,1,0
35.23904,-16728,1076,-2260,-1072,-237,-431,1,0
35.27222,-16024,1360,-2468,-1104,-157,270,1,0
35.3054,-16332,1236,-2676,-1120,117,223,1,0
35.32199,-16504,1424,-2664,-1072,-239,-6,1,0
35.37176,-16300,1144,-2424,-1104,-180,189,1,0
35.37176,-16320,1320,-2524,-1120,-144,55,1,0
35.42153,-16256,1276,-2308,-1120,17,652,1,0
35.45471,-16488,1188,-2660,-1088,-20,251,1,0
35.53765,-16392,1068,-2500,-1088,10,151,1,0
35.55424,-16424,1172,-2756,-1088,-179,5,1,0
35.58743,-16304,1140,-2384,-1072,-266,-52,1,0
35.63719,-16448,1156,-2276,-1120,-149,139,1,0
35.63719,-16368,1328,-2176,-1120,-88,214,1,0
35.67037,-16276,1276,-2824,-1072,-68,354,1,0
35.68696,-16232,1280,-2508,-1104,-136,-84,1,0
35.72014,-16360,1200,-2424,-1088,-98,125,1,0
35.76991,-16348,1160,-2504,-1088,-55,289,1,0
35.76991,-16568,1112,-2672,-1088,-265,43,1,0
35.85286,-16092,1380,-2240,-1072,-94,-643,1,0
35.90263,-16336,980,-2324,-1104,36,168,1,0
35.90263,-16600,1076,-2524,-1088,-118,-132,1,0
35.95239,-16268,1064,-2400,-1088,-176,48,1,0
35.95239,-16432,1220,-2528,-1104,-114,-167,1,0
36.00168,-16244,1228,-2252,-1136,-107,85,1,0
36.08458,-16304,1260,-2520,-1104,-35,209,1,0
36.08458,-16456,1104,-2636,-1056,-107,-94,1,0
36.1675,-16484,1088,-2412,-1088,-396,-168,1,0
36.18409,-16380,1088,-1824,-1104,-192,-236,1,0
36.21726,-16428,892,-2028,-1072,67,242,1,0
36.21726,-16344,1232,-2376,-1056,-58,-34,1,0
36.26701,-16332,960,-2220,-1088,0,335,1,0
36.28359,-16468,1092,-2392,-1056,-99,197,1,0
36.28359,-16240,1084,-2076,-1088,-133,130,1,0
36.34993,-16392,1076,-2420,-1088,-140,185,1,0
36.36652,-16360,1280,-2164,-1104,-116,92,1,0
36.39968,-16408,1212,-2296,-1088,-88,320,1,0
36.4826,-16284,1132,-2372,-1104,-141,-78,1,0
36.4826,-16376,1124,-2124,-1040,-18,93,1,0
36.53235,-16344,1116,-2464,-1104,-50,326,1,0
36.54894,-16364,1040,-2400,-1104,-174,-34,1,0
36.5821,-16340,1136,-1932,-1104,-109,7,1,0
36.5821,-16432,1144,-2248,-1104,-126,323,1,0
36.63186,-16384,1040,-2568,-1104,-60,208,1,0
36.66502,-16284,1120,-2364,-1088,-212,-122,1,0
36.66502,-16396,1188,-1996,-1104,-78,121,1,0
36.71478,-16460,1168,-2104,-1088,-83,262,1,0
36.71478,-16416,1076,-2424,-1072,-94,266,1,0
36.74794,-16352,1232,-2440,-1104,-57,100,1,0
36.81429,-16440,1096,-2112,-1088,-18,188,1,0
36.81429,-16404,1076,-2376,-1104,-41,339,1,0
36.83087,-16272,1000,-2464,-1088,-131,23,1,0
36.89721,-16352,1264,-2336,-1088,-137,37,1,0
36.89721,-16388,1164,-2148,-1120,-135,-103,1,0
36.94696,-16416,1120,-2248,-1088,-109,195,1,0
36.98013,-16392,1268,-2376,-1104,-89,-46,1,0
37.02988,-16492,1152,-2028,-1120,-106,179,1,0
37.02988,-16408,1144,-2320,-1088,-111,316,1,0
37.06305,-16224,1272,-2204,-1104,-86,59,0,0
37.1128,-16488,1240,-2268,-1104,-142,269,0,0
37.1128,-16316,1112,-2336,-1088,-138,185,0,0
37.16233,-16304,1184,-2264,-1056,-30,279,0,0
37.21231,-16480,880,-2324,-1072,-178,14,0,0
37.26206,-16336,1116,-2144,-1088,-135,103,0,0
37.29523,-16364,1220,-2144,-1072,-116,306,0,0
37.29523,-16436,1172,-2296,-1120,14,313,0,0
37.3284,-16524,1152,-2548,-1088,-102,176,0,0
37.37815,-16316,1068,-2332,-1088,-57,105,0,0
37.37815,-16376,1264,-2596,-1104,-49,192,0,0
37.42791,-16368,948,-2148,-1104,-95,-161,0,0
37.47766,-16248,1160,-1944,-1088,-61,354,0,0
37.52741,-16460,1208,-2468,-1088,-64,91,0,0
37.52741,-16360,1008,-2344,-1088,19,227,0,0
37.54399,-16488,1080,-2416,-1120,-70,242,0,0
37.61034,-16320,1016,-2272,-1104,-120,122,0,0
37.61034,-16428,1268,-2180,-1104,-92,183,0,0
37.66009,-16544,1040,-2488,-1088,-70,224,0,0
37.70984,-16276,1064,-2480,-1104,-90,57,0,0
37.70984,-16316,1128,-2244,-1088,-27,285,0,0
37.75959,-16484,1160,-2288,-1072,-104,81,0,0
37.84252,-16296,1264,-2008,-1104,-121,134,0,0
37.84252,-16304,1104,-2264,-1088,13,407,0,0
37.89227,-16312,1124,-2600,-1056,-61,132,0,0
37.92528,-16396,1180,-2308,-1040,-116,84,0,0
37.92528,-16460,1168,-2212,-1104,-59,190,0,0
37.97519,-16292,1108,-2220,-1088,38,315,0,0
37.97519,-16380,1096,-2372,-1072,-71,159,0,0
38.00836,-16388,1080,-2236,-1104,-26,180,0,0
38.05811,-16264,1200,-2280,-1088,24,296,0,0
38.0747,-16504,1164,-2368,-1072,36,163,0,0
38.10786,-16412,964,-2372,-1072,-31,323,0,0
38.19078,-16256,1260,-2212,-1088,8,541,0,0
38.24053,-16476,928,-2752,-1104,-105,220,0,0
38.29029,-16292,1172,-2092,-1120,-39,-98,0,0
38.32346,-16392,1140,-2264,-1088,6,564,0,0
38.42296,-16312,1064,-2356,-1056,6,206,0,0
38.47271,-16352,1048,-2440,-1056,-50,245,0,0
38.52247,-16212,980,-2480,-1088,-35,238,0,0
38.55564,-16428,1204,-2292,-1072,-36,214,0,0
38.60539,-16368,1060,-2132,-1088,53,298,0,0
38.63856,-16292,1188,-2112,-1056,170,704,0,0
38.72134,-16468,1008,-2316,-1104,167,819,0,0
38.77124,-16444,980,-2208,-1088,227,836,0,0
38.82099,-16264,1080,-2624,-1120,194,1023,0,0
38.85416,-16416,1028,-2736,-1088,191,984,0,0
38.90392,-16304,1064,-2816,-1088,111,732,0,0
38.95367,-16240,1040,-2832,-1056,170,439,0,0
39.03659,-16368,996,-2748,-1104,167,536,0,0
39.08634,-16324,892,-2764,-1072,129,537,0,0
39.11951,-16348,996,-2768,-1088,90,475,0,0
39.16926,-16304,956,-2856,-1088,115,467,0,0
39.21901,-16280,1012,-2832,-1088,196,642,0,0
39.26877,-16324,864,-2996,-1072,162,590,0,0
39.30194,-16244,1000,-2936,-1104,73,444,0,0
39.40144,-16272,1064,-2860,-1088,67,321,0,0
39.43461,-16324,888,-2824,-1120,124,360,0,0
39.50095,-16376,888,-2712,-1088,98,424,0,0
39.53411,-16260,792,-2824,-1104,151,630,0,0
39.58386,-16280,1068,-2944,-1072,191,349,0,0
39.63361,-16284,900,-2812,-1056,243,599,0,0
39.71654,-16292,896,-3280,-1104,161,678,0,0
39.76629,-16256,796,-3324,-1088,73,390,0,0
39.79946,-16144,912,-3224,-1104,61,493,0,0
39.84921,-16368,1016,-2968,-1056,120,464,0,0
39.88239,-16312,884,-2908,-1072,119,359,0,0
39.98189,-16168,904,-3204,-1088,106,432,0,0
40.01506,-16288,964,-2960,-1088,76,187,0,0
40.06473,-16336,724,-3172,-1072,143,666,0,0
40.11456,-16196,868,-3440,-1088,166,396,0,0
40.16431,-16324,932,-3284,-1040,21,305,0,0
40.21407,-16264,864,-3176,-1104,102,662,0,0
40.24724,-16168,828,-3312,-1088,175,460,0,0
40.34675,-16144,836,-3124,-1072,279,715,0,0
40.42967,-16200,908,-3424,-1072,80,471,0,0
40.47942,-16172,748,-3452,-1104,82,336,0,0
40.52918,-16160,756,-3476,-1104,120,561,0,0
40.57893,-16168,832,-3376,-1072,289,559,0,0
40.66186,-16160,716,-3592,-1104,319,993,0,0
40.74478,-16168,676,-3820,-1088,255,532,0,0
40.79453,-16128,1192,-3684,-1088,375,564,0,0
40.84428,-16144,876,-3792,-1104,158,531,0,0
40.87745,-16224,720,-3956,-1088,-16,231,0,0
40.92721,-16204,644,-3536,-1088,182,792,0,0
41.02672,-16180,568,-3788,-1072,124,352,0,0
41.05989,-16092,752,-3880,-1072,55,286,0,0
41.10964,-16240,580,-3780,-1104,135,386,0,0
41.15939,-16012,784,-4020,-1056,109,308,0,0
41.19296,-16108,540,-3904,-1088,186,318,0,0
41.2925,-16252,624,-3884,-1120,51,535,0,0
41.37545,-16132,464,-3884,-1104,32,391,0,0
41.42522,-16068,648,-3884,-1072,-17,383,0,0
41.47499,-16144,480,-4120,-1056,14,340,0,0
41.52476,-16240,612,-3932,-1072,221,413,0,0
41.55794,-16272,368,-4180,-1088,475,605,0,0
41.60771,-16008,656,-4096,-1088,184,356,0,0
41.69067,-16012,600,-3940,-1072,409,553,0,0
41.74044,-16028,604,-4052,-1088,244,346,0,0
41.77362,-16196,436,-4540,-1088,206,515,0,0
41.83998,-15908,516,-4056,-1088,96,447,0,0
41.85658,-15948,628,-4204,-1088,374,475,0,0
41.92294,-15996,564,-4528,-1104,88,348,0,0
41.97271,-16068,540,-4228,-1120,-5,139,0,0
42.05566,-16056,548,-4496,-1104,0,54,0,0
42.10543,-16048,420,-4208,-1056,25,158,0,0
42.17181,-16056,540,-4508,-1072,161,369,0,0
42.18839,-16184,484,-4036,-1104,0,166,0,0
42.23816,-16080,600,-4536,-1088,49,263,0,0
42.32112,-15948,488,-4160,-1040,-60,-212,0,0
42.38748,-16044,560,-4520,-1104,-2,194,0,0
42.43725,-15988,612,-4396,-1088,-32,155,0,0
42.47043,-16092,540,-4388,-1088,13,250,0,0
42.52021,-16056,560,-4528,-1056,28,283,0,0
42.60316,-16044,612,-4476,-1056,-163,207,0,0
42.63634,-16072,528,-4056,-1088,-3,215,0,0
42.68612,-16040,536,-4396,-1088,73,465,0,0
42.75248,-15952,720,-4380,-1088,199,397,0,0
42.80225,-16028,572,-4632,-1072,137,503,0,0
42.81884,-16484,-336,-4612,-1088,378,-156,0,0
42.91838,-16212,560,-4424,-1104,108,0,0,0
42.96815,-16012,476,-4360,-1104,150,130,0,0
43.01793,-15924,580,-4624,-1056,40,207,0,0
43.0677,-16052,600,-4136,-1088,-78,147,0,0
43.11748,-15988,720,-4616,-1056,19,312,0,0
43.18384,-15924,648,-4376,-1088,-49,98,0,0
43.23361,-15956,604,-4504,-1072,8,164,0,0
43.28338,-15988,492,-4516,-1088,-10,123,0,0
43.41611,-15860,512,-4424,-1088,25,142,0,0
43.44929,-16008,564,-4572,-1056,-53,-25,0,0
43.51566,-16048,568,-4672,-1104,-17,262,0,0
43.54884,-15976,520,-4420,-1104,-10,136,0,0
43.59861,-15920,488,-4360,-1088,-74,321,0,0
43.64838,-16000,496,-4664,-1088,-59,161,0,0
43.73133,-15944,632,-4468,-1088,-10,278,0,0
43.78111,-16048,408,-4792,-1088,34,255,0,0
43.81429,-15956,692,-4412,-1040,-19,172,0,0
43.86405,-15992,500,-4508,-1120,3,174,0,0
43.91382,-16028,512,-4564,-1104,-60,55,0,0
43.94701,-16084,648,-4500,-1088,30,68,0,0
43.99678,-15852,668,-4648,-1072,-62,-2,0,0
44.04655,-16084,636,-4612,-1072,35,-13,0,0
44.1295,-16080,616,-4432,-1072,-68,89,0,0
44.17927,-15920,408,-4460,-1056,30,166,0,0
44.22904,-16044,592,-4224,-1056,-55,213,0,0
44.26222,-15992,508,-4440,-1056,-48,202,0,0
44.31199,-16036,560,-4444,-1104,-77,312,0,0
44.41187,-15868,632,-4468,-1104,-93,96,0,0
44.44506,-15968,552,-4516,-1104,6,251,0,0
44.49496,-15952,416,-4576,-1088,12,113,0,0
44.52818,-16072,508,-4432,-1072,-60,166,0,0
44.578,-16100,628,-4504,-1072,-72,102,0,0
44.62782,-16088,536,-4716,-1072,-57,182,0,0
44.67765,-15896,504,-4504,-1072,-24,198,0,0
44.7607,-16080,584,-4752,-1088,-214,-117,0,0
44.81052,-15972,700,-4368,-1088,-83,-8,0,0
44.86034,-15952,508,-4400,-1120,-45,108,0,0
44.91017,-16012,652,-4376,-1120,-113,146,0,0
44.94339,-16008,656,-4504,-1104,-54,78,0,0
44.99322,-15892,572,-4508,-1104,-86,182,0,0
45.07626,-15980,584,-4560,-1056,-63,84,0,0
45.12556,-15916,628,-4472,-1088,-46,198,0,0
45.17539,-15884,656,-4460,-1088,-65,202,0,0
45.22512,-16056,592,-4576,-1072,-19,203,0,0
45.2583,-15976,588,-4424,-1088,-124,127,0,0
45.30808,-16008,688,-4720,-1088,-18,176,0,0
45.35786,-15996,568,-4516,-1056,-162,182,0,0
45.44082,-16020,620,-4664,-1056,-110,107,0,0
45.4906,-16012,648,-4408,-1104,-139,130,0,0
45.54037,-15948,608,-4484,-1056,-112,227,0,0
45.57355,-16048,688,-4384,-1104,-80,222,0,0
45.65652,-15980,520,-4576,-1072,-76,149,0,0
45.70629,-16132,636,-4332,-1088,-149,183,0,0
45.75607,-15940,496,-4420,-1088,-78,241,0,0
45.80584,-16040,676,-4276,-1104,-78,188,0,0
45.85562,-16032,560,-4564,-1104,-74,134,0,0
45.88881,-15956,572,-4492,-1088,-37,226,0,0
45.98835,-15944,636,-4588,-1088,-96,71,0,0
46.03813,-16000,544,-4520,-1088,-2,272,0,0
46.0879,-15996,556,-4568,-1104,-98,169,0,0
46.17086,-15908,680,-4412,-1056,-96,31,0,0
46.20405,-16012,512,-4336,-1088,-153,267,0,0
46.3036,-15968,616,-4480,-1088,-109,85,0,0
46.35338,-15932,664,-4348,-1088,-26,133,0,0
46.38656,-15976,668,-4484,-1104,-126,123,0,0
46.43634,-15944,696,-4432,-1072,-72,138,0,0
46.5193,-16000,652,-4468,-1056,-52,160,0,0
46.61885,-16016,692,-4584,-1072,-86,217,0,0
46.66863,-15900,708,-4496,-1072,-89,176,0,0
46.70182,-16036,636,-4656,-1088,-120,135,0,0
46.75159,-16056,620,-4328,-1088,-90,237,0,0
46.80136,-15980,600,-4448,-1104,-155,287,0,0
46.83455,-15960,704,-4476,-1088,-84,29,0,0
46.9341,-16004,556,-4404,-1072,-51,199,0,0
46.98383,-15972,600,-4688,-1104,-126,143,0,0
47.01706,-15948,556,-4608,-1072,-101,161,0,0
47.06684,-15936,728,-4584,-1072,-109,134,0,0
47.11661,-15988,684,-4380,-1088,-73,140,0,0
47.16639,-16012,540,-4528,-1056,-138,134,0,0
47.28254,-15920,684,-4488,-1072,12,132,0,0
47.33231,-16008,564,-4468,-1088,-84,195,0,0
47.36549,-16004,640,-4508,-1056,-94,136,0,0
47.43186,-15968,580,-4300,-1088,-62,168,0,0
47.46504,-16076,604,-4672,-1072,-127,47,0,0
47.51482,-15992,672,-4440,-1056,-43,289,0,0
47.5646,-16100,612,-4548,-1072,25,266,0,0
47.63097,-15944,524,-4632,-1040,-110,151,0,0
47.69734,-16040,612,-4452,-1088,-83,141,0,0
47.74711,-15896,600,-4616,-1072,-51,145,0,0
47.7803,-16104,560,-4472,-1104,-103,199,0,0
47.87984,-15948,544,-4504,-1056,-98,86,0,0
47.92962,-15900,656,-4472,-1072,-60,203,0,0
47.9628,-16056,584,-4528,-1056,-112,128,0,0
48.06236,-15912,568,-4592,-1056,-66,129,0,0
48.07895,-16044,496,-4608,-1104,-18,121,0,0
48.14532,-16012,604,-4372,-1088,53,106,0,0
48.1951,-15972,712,-4420,-1056,-17,157,0,0
48.24487,-16020,652,-4644,-1088,-39,144,0,0
48.26146,-15968,588,-4404,-1088,-75,176,0,0
48.36101,-16080,612,-4412,-1072,-9,334,0,0
48.41078,-16036,628,-4268,-1056,-107,68,0,0
48.46056,-16008,660,-4416,-1088,37,237,0,0
48.51033,-15976,604,-4660,-1088,-108,137,0,0
48.56011,-16076,612,-4444,-1088,-34,139,0,0
48.5933,-15932,568,-4480,-1056,-106,295,0,0
48.64307,-15928,700,-4500,-1104,-60,52,0,0
48.72604,-16012,560,-4344,-1056,-64,197,0,0
48.77581,-16012,668,-4500,-1104,-90,182,0,0
48.82558,-15972,528,-4492,-1088,-88,127,0,0
48.90854,-15944,616,-4640,-1072,-86,151,0,0
48.94173,-16076,572,-4632,-1088,-96,114,0,0
49.0081,-15980,568,-4312,-1040,-94,174,0,0
49.04128,-15992,656,-4464,-1088,-26,158,0,0
49.12424,-16044,608,-4552,-1072,-53,171,0,0
49.22379,-15960,680,-4484,-1056,-72,242,0,0
49.27357,-15944,752,-4480,-1072,-94,191,0,0
49.32335,-16008,564,-4540,-1056,-46,242,0,0
49.35653,-15944,716,-4560,-1120,-60,84,0,0
49.40631,-15892,524,-4560,-1104,-102,163,0,0
49.48927,-16100,600,-4392,-1072,-83,133,0,0
49.53904,-15992,584,-4468,-1088,-51,149,0,0
49.58881,-15928,552,-4504,-1056,-95,146,1,0
49.67178,-16056,608,-4600,-1056,-58,209,1,0
49.72155,-15944,600,-4700,-1072,-52,115,1,0
49.77133,-15940,588,-4392,-1072,-142,113,1,0
49.85429,-15988,508,-4560,-1104,-59,214,1,0
49.93725,-16024,580,-4480,-1040,-78,89,1,0
49.98703,-15916,584,-4376,-1072,-113,83,1,0
50.0368,-15956,680,-4584,-1056,-96,197,1,0
50.06999,-15956,504,-4432,-1104,-67,71,1,0
50.11976,-16048,580,-4620,-1072,-102,315,1,0
50.16954,-16044,660,-4500,-1072,-10,101,1,0
50.21932,-15840,556,-4536,-1072,-124,83,1,0
50.30228,-16052,672,-4604,-1056,-73,104,1,0
50.33546,-16072,648,-4464,-1056,-92,113,1,0
50.40183,-15944,620,-4544,-1056,-120,280,1,0
50.48479,-15988,572,-4284,-1072,-48,182,1,0
50.53456,-15948,628,-4624,-1072,-76,183,1,0
50.56775,-15980,580,-4500,-1072,-27,103,1,0
50.6673,-16076,592,-4392,-1088,-102,123,1,0
50.71708,-15944,624,-4632,-1104,-52,165,1,0
50.75026,-16012,608,-4420,-1072,-113,131,1,0
50.80004,-15996,740,-4548,-1056,-9,201,1,0
50.84982,-16040,612,-4568,-1088,-86,114,1,0
50.93277,-15984,660,-4648,-1072,-94,197,1,0
50.98255,-15992,692,-4488,-1088,-99,217,1,0
51.03233,-16024,716,-4472,-1072,-61,145,1,0
51.06551,-16084,612,-4468,-1072,-88,116,1,0
51.11529,-16000,660,-4724,-1104,-135,106,1,0
51.16506,-16080,604,-4616,-1088,-86,96,1,0
51.24791,-16024,500,-4448,-1088,-256,-111,1,0
51.2978,-16044,480,-4592,-1072,-175,-50,1,0
51.34758,-16092,560,-4348,-1088,-275,9,1,0
51.38076,-15932,628,-4424,-1088,-136,162,1,0
51.46372,-15996,652,-4348,-1104,-213,10,1,0
51.5135,-15976,708,-4408,-1088,-252,-52,1,0
51.56327,-16104,576,-4472,-1040,-310,56,1,0
51.59646,-15876,660,-4320,-1088,-286,-81,1,0
51.64623,-16164,640,-4328,-1072,-329,-181,1,0
51.69601,-16028,708,-4136,-1056,-295,-9,1,0
51.74579,-16008,604,-4348,-1088,-73,210,1,0
51.87852,-16092,692,-4320,-1072,-131,-602,1,0
51.9283,-16140,632,-4108,-1056,-265,207,1,0
51.96149,-16116,732,-4128,-1072,-230,-210,1,0
52.01124,-16128,480,-4160,-1088,-192,17,1,0
52.06102,-16060,664,-4160,-1088,-236,-197,1,0
52.1933,-16288,596,-4512,-1088,-306,-286,1,0
52.24308,-16052,632,-4184,-1088,-440,-2,1,0
52.27619,-16000,556,-3788,-1072,-291,-202,1,0
52.32594,-16184,644,-3960,-1072,-344,-103,1,0
52.37568,-16112,512,-4320,-1072,-599,-132,1,0
52.42537,-16084,776,-3860,-1072,-606,-362,1,0
52.50834,-16108,724,-3740,-1056,-309,-122,1,0
52.55808,-16232,780,-3876,-1072,-225,-137,1,0
52.59125,-16172,912,-3804,-1056,-305,-186,1,0
52.64099,-16208,496,-3832,-1072,-288,-183,1,0
52.69073,-16124,404,-3840,-1072,-314,-178,1,0
52.77364,-16324,360,-3840,-1072,-507,-518,1,0
52.82339,-16116,492,-3700,-1056,-389,-335,1,0
52.87314,-16104,496,-3560,-1072,-384,-303,1,0
52.9063,-16056,624,-3344,-1056,-302,-684,1,0
52.95605,-16152,576,-3480,-1088,-414,-7,1,0
53.00579,-16212,720,-3072,-1056,-368,-493,1,0
53.08871,-16196,712,-3284,-1056,-352,-180,1,0
53.13845,-16212,780,-3116,-1072,-261,-246,1,0
53.1882,-16364,700,-2672,-1040,-115,-244,1,0
53.22137,-16280,812,-3352,-1072,-276,-291,1,0
53.30428,-16336,700,-3232,-1088,-355,-185,1,0
53.37061,-16252,680,-2952,-1072,-228,-214,1,0
53.40377,-16196,652,-3468,-1056,-358,-445,1,0
53.50326,-16272,728,-3032,-1088,-542,-753,1,0
53.55301,-16404,960,-2648,-1104,-443,-384,1,0
53.60276,-16280,740,-2888,-1072,-176,-166,1,0
53.63592,-16316,932,-2824,-1072,-185,-311,1,0
53.71883,-16428,732,-2476,-1072,-231,-380,1,0
53.76857,-16400,720,-2636,-1056,-89,-123,1,0
53.81832,-16380,612,-2736,-1072,-47,63,1,0
53.86806,-16304,788,-2776,-1072,-83,1,1,0
53.90123,-16340,624,-2708,-1072,-126,26,1,0
54.00072,-16316,708,-2912,-1088,-184,-52,1,0
54.03389,-16396,640,-2564,-1104,-175,62,1,0
54.08363,-16324,704,-2600,-1104,-100,87,1,0
54.13338,-16544,628,-2832,-1056,-259,-101,1,0
54.20007,-16316,692,-2468,-1072,-213,32,1,0
54.24989,-16396,812,-2496,-1072,-173,119,1,0
54.29967,-16244,796,-2640,-1072,-209,3,1,0
54.33286,-16456,672,-2492,-1088,-162,98,1,0
54.44901,-16252,684,-2584,-1040,-142,70,1,0
54.48219,-16536,704,-2764,-1088,-258,-125,1,0
54.53196,-16392,732,-1928,-1088,-134,304,1,0
54.58174,-16328,696,-2728,-1056,-44,144,1,0
54.63152,-16316,688,-2592,-1056,-60,46,1,0
54.76426,-16804,368,-2628,-1040,-334,-381,1,0
54.79745,-16324,592,-2448,-1104,-132,-655,1,0
54.84722,-16372,792,-2316,-1056,-106,-65,1,0
54.897,-16344,604,-2660,-1088,-267,-23,1,0
54.94678,-16544,908,-2256,-1056,-341,-104,1,0
55.07952,-16380,856,-2116,-1072,-206,279,1,0
55.1127,-16528,824,-2560,-1088,-43,366,1,0
55.16248,-16352,680,-2360,-1056,-170,133,1,0
55.21226,-16372,688,-2160,-1072,-184,106,1,0
55.26204,-16508,604,-2724,-1072,-189,148,1,0
55.29522,-16324,812,-2136,-1088,-67,208,1,0
55.39478,-16408,684,-2512,-1040,-42,194,1,0
55.42796,-16352,728,-2444,-1072,-101,187,1,0
55.47774,-16484,644,-2388,-1088,-212,104,1,0
55.52752,-16360,704,-2344,-1040,-337,77,1,0
55.57729,-16392,1056,-2212,-1056,-242,-72,1,0
55.61048,-16396,624,-2116,-1072,-28,138,1,0
55.66026,-16348,668,-2160,-1088,-100,91,1,0
55.74322,-16316,780,-2180,-1056,-111,131,1,0
55.793,-16420,708,-2180,-1072,-73,94,1,0
55.84278,-16348,876,-2272,-1072,-91,441,1,0
55.89256,-16508,712,-2348,-1072,-134,194,1,0
55.92574,-16448,888,-2184,-1056,-55,118,1,0
55.97552,-16200,744,-2052,-1056,-123,96,1,0
56.05848,-16400,808,-2284,-1088,-122,64,1,0
56.10826,-16336,664,-2400,-1072,-16,144,1,0
56.15804,-16320,808,-2460,-1072,-33,139,1,0
56.2405,-16412,780,-2348,-1056,-130,83,1,0
56.34007,-16376,680,-2292,-1056,-106,207,1,0
56.37326,-16356,616,-2392,-1040,-162,122,1,0
56.47282,-16328,852,-2388,-1056,-114,151,1,0
56.50601,-16520,788,-2268,-1056,-82,102,1,0
56.55579,-16404,716,-2292,-1056,-100,161,1,0
56.58898,-16412,724,-2528,-1088,-78,161,1,0
56.65536,-16380,792,-2264,-1056,-118,179,1,0
56.73832,-16444,612,-2472,-1056,-154,166,1,0
56.78811,-16516,700,-2456,-1040,-179,157,1,0
56.83789,-16252,848,-1844,-1072,76,584,1,0
56.87108,-16456,740,-2600,-1072,-23,183,1,0
56.92086,-16352,672,-2504,-1040,-109,257,1,0
56.97064,-16556,652,-2328,-1072,-112,0,1,0
57.05361,-16308,768,-2040,-1072,-43,205,1,0
57.1034,-16372,740,-2388,-1072,-35,-40,1,0
57.15318,-16332,756,-2192,-1072,32,206,1,0
57.16977,-16352,688,-2316,-1040,30,173,1,0
57.23615,-16400,688,-2544,-1072,-117,70,1,0
57.31911,-16340,784,-2396,-1056,-114,75,1,0
57.36889,-16372,756,-2256,-1024,-124,211,1,0
57.45186,-16260,660,-2260,-1072,-128,33,1,0
57.50164,-16284,884,-2240,-1056,-106,228,1,0
57.55143,-16372,716,-2304,-1056,-69,184,1,0
57.58461,-16300,664,-2384,-1040,-109,170,1,0
57.68418,-16504,808,-2452,-1056,-187,129,1,0
57.73396,-16256,916,-2148,-1088,-79,147,1,0
57.81693,-16408,692,-2500,-1088,-74,132,1,0
57.86671,-16440,684,-2108,-1056,55,211,1,0
57.91649,-16304,900,-2328,-1056,-29,139,1,0
57.94968,-16244,628,-2092,-1056,-236,-25,1,0
57.99946,-16336,812,-2220,-1072,-80,179,1,0
58.08242,-16420,948,-2480,-1040,-98,234,1,0
58.1322,-16336,812,-2268,-1072,-161,216,1,0
58.18199,-16372,756,-2136,-1056,-111,30,1,0
58.2147,-16424,744,-2108,-1072,-29,204,1,0
58.26448,-16444,832,-2404,-1056,-57,158,1,0
58.31424,-16360,752,-2124,-1072,-94,190,1,0
58.39717,-16356,736,-2248,-1056,-36,271,1,0
58.44693,-16444,768,-2520,-1088,-114,150,1,0
58.49669,-16412,788,-2320,-1088,-83,203,1,0
58.54645,-16484,744,-2316,-1056,-51,139,1,0
58.56303,-16496,856,-2512,-1072,-33,105,1,0
58.67915,-16336,832,-2140,-1072,-38,334,1,0
58.71232,-16324,732,-2468,-1056,-52,166,1,0
58.76208,-16416,804,-2220,-1088,148,779,1,0
58.81184,-16468,408,-2492,-1088,-65,372,1,0
58.8616,-16276,768,-2468,-1040,-85,136,1,0
58.87818,-16212,680,-2340,-1072,-74,239,1,0
58.99429,-16468,676,-2484,-1056,-114,153,1,0
59.02747,-16404,800,-2176,-1056,-79,-107,1,0
59.07722,-16480,684,-2460,-1072,-84,131,1,0
59.11039,-16380,712,-2344,-1040,-195,100,1,0
59.17674,-16416,716,-2576,-1088,-88,305,1,0
59.20991,-16444,744,-2236,-1072,-32,404,1,0
59.30943,-16452,824,-2412,-1088,-45,249,1,0
59.35919,-16284,756,-2628,-1056,-161,15,1,0
59.39236,-16408,692,-2212,-1056,-23,243,1,0
59.44213,-16532,612,-2492,-1056,-61,217,1,0
59.49189,-16444,756,-2456,-1040,-84,207,1,0
59.62458,-16336,684,-2364,-1056,-142,126,1,0
59.65775,-16208,832,-2196,-1072,-66,304,1,0
59.70751,-16348,708,-2536,-1072,-29,242,1,0
59.75727,-16264,672,-2556,-1056,-47,144,1,0
59.80703,-16316,668,-2432,-1056,-24,233,1,0
59.8402,-16372,724,-2584,-1072,-133,132,1,0
59.93972,-16404,600,-2312,-1072,-95,443,1,0
59.98949,-16428,684,-2436,-1056,-99,37,1,0
60.02266,-16352,708,-2176,-1040,20,231,1,0
60.07241,-16404,568,-2516,-1072,-56,316,1,0
60.12217,-16360,632,-2396,-1040,-76,94,1,0
60.20511,-16484,632,-2404,-1088,-152,46,1,0
60.28804,-16252,572,-2420,-1088,-122,255,1,0
60.3378,-16452,696,-2448,-1040,-109,219,1,0
60.38756,-16308,692,-2416,-1040,-63,15,1,0
60.43732,-16248,668,-2284,-1040,-38,337,1,0
60.4705,-16380,656,-2572,-1024,-101,-27,1,0
60.60319,-16120,780,-2036,-1088,-50,163,1,0
60.65295,-16332,696,-2544,-1072,-94,197,1,0
60.70271,-16408,664,-2332,-1056,-178,-56,1,0
60.75247,-16392,736,-2320,-1056,-91,308,1,0
60.78564,-16304,640,-2636,-1072,-162,-14,1,0
60.86858,-16560,876,-2516,-1040,-103,169,1,0
60.91834,-16360,784,-2468,-1056,-57,125,1,0
60.9681,-16404,692,-2456,-1040,-36,330,1,0
61.01786,-16444,748,-2364,-1056,-119,54,1,0
61.10079,-16364,644,-2424,-1072,-60,207,1,0
61.15054,-16388,528,-2492,-1072,-136,239,1,0
61.23348,-16416,784,-2332,-1024,-62,225,1,0
61.28324,-16372,636,-2504,-1024,-138,42,1,0
61.333,-16404,692,-2560,-1056,-74,117,1,0
61.41593,-16296,704,-2616,-1056,-85,195,1,0
61.46569,-16416,744,-2304,-1040,-114,79,1,0
61.51545,-16296,800,-2524,-1040,-91,148,1,0
61.54863,-16416,672,-2440,-1056,-94,205,1,0
61.59838,-16392,720,-2604,-1056,-96,137,1,0
61.64814,-16388,788,-2176,-1056,-173,139,1,0
61.73108,-16376,728,-2508,-1088,-78,33,1,0
61.78084,-16388,680,-2320,-1072,-47,248,1,0
61.8306,-16332,828,-2296,-1040,-20,350,1,0
61.86377,-16408,736,-2536,-1072,-111,56,1,0
61.91353,-16364,816,-2432,-1056,-45,157,1,0
61.96329,-16372,700,-2256,-1056,-82,206,1,0
62.01305,-16352,736,-2492,-1072,-251,-84,1,0
62.09599,-16352,696,-2280,-1056,-77,-72,1,0
62.12916,-16356,804,-2380,-1088,-36,230,1,0
62.17892,-16424,816,-2272,-1056,-125,-112,1,0
62.22868,-16304,848,-2200,-1056,-46,151,1,0
62.27844,-16420,728,-2372,-1072,-40,285,1,0
62.31161,-16440,744,-2228,-1072,-97,96,1,0
62.41113,-16324,764,-2480,-1072,-38,243,1,0
62.49406,-16332,680,-2172,-1040,-122,160,1,0
62.54382,-16336,928,-2340,-1056,-103,-145,1,0
62.57681,-16292,668,-2372,-1072,-56,483,1,0
62.64334,-16332,808,-2324,-1040,-55,210,1,0
62.67652,-16264,712,-2480,-1072,-42,73,1,0
62.72628,-16380,832,-2440,-1040,-110,12,1,0
62.80921,-16364,796,-2548,-1056,-49,293,1,0
62.85897,-16308,788,-2392,-1072,-156,-49,1,0
62.90873,-16416,800,-2408,-1056,-61,212,1,0
62.95887,-16292,764,-2340,-1040,-25,254,1,0
63.02527,-16352,840,-2428,-1056,-116,276,1,0
63.12486,-16440,776,-2260,-1072,-62,128,1,0
63.22444,-16220,784,-2448,-1072,-122,196,0,0
63.27423,-16392,816,-2376,-1056,-67,271,0,0
63.30742,-16464,772,-2456,-1088,-92,77,0,0
63.35721,-16400,688,-2400,-1072,-77,248,0,0
63.40701,-16516,812,-2560,-1040,-157,204,0,0
63.52319,-16192,812,-2224,-1056,-54,200,0,0
63.57298,-16536,924,-2152,-1072,-66,73,0,0
63.62277,-16328,744,-2616,-1040,-44,242,0,0
63.67256,-16412,804,-2236,-1040,-58,56,0,0
63.70576,-16400,660,-2432,-1072,-43,315,0,0
63.77214,-16308,776,-2296,-1056,-35,32,0,0
63.80534,-16376,764,-2320,-1056,-75,192,0,0
63.90492,-16444,696,-2500,-1040,-90,198,0,0
63.93811,-16344,764,-2340,-1008,-82,78,0,0
63.9879,-16484,708,-2476,-1056,-76,294,0,0
64.0211,-16264,828,-2432,-1056,-127,79,0,0
64.07089,-16364,832,-2456,-1056,-44,183,0,0
64.12069,-16416,724,-2324,-1088,-156,197,0,0
64.20367,-16364,748,-2368,-1056,-86,148,0,0
64.25346,-16424,752,-2412,-1056,-49,199,0,0
64.30326,-16324,772,-2724,-1088,-120,172,0,0
64.35305,-16332,740,-2488,-1040,-89,92,0,0
64.40285,-16460,764,-2400,-1072,-89,165,0,0
64.51903,-16332,796,-2192,-1008,-81,-7,0,0
64.55222,-16520,720,-2328,-1088,-22,236,0,0
64.61861,-16368,672,-2584,-1040,-139,322,0,0
64.6684,-16432,832,-2212,-1056,-101,64,0,0
64.70159,-16424,784,-2392,-1040,-132,91,0,0
64.73479,-16300,816,-2460,-1056,-94,259,0,0
64.80118,-16380,780,-2516,-1056,15,341,0,0
64.88416,-16324,624,-2352,-1056,-146,-139,0,0
64.93396,-16440,808,-2448,-1056,-56,254,0,0
64.98375,-16256,676,-2424,-1024,-27,159,0,0
65.01694,-16428,816,-2572,-1072,-58,131,0,0
65.06673,-16416,784,-2380,-1040,-98,235,0,0
65.14972,-16304,772,-2404,-1056,-60,152,0,0
65.19951,-16400,728,-2444,-1072,-152,81,0,0
65.24931,-16368,796,-2372,-1056,-150,41,0,0
65.29856,-16376,804,-2252,-1040,-18,142,0,0
65.34836,-16332,704,-2672,-1056,-33,15,0,0
65.38152,-16252,680,-2400,-1040,121,261,0,0
65.46445,-16416,768,-2412,-1056,16,170,0,0
65.49763,-16344,760,-2500,-1040,23,534,0,0
65.56398,-16372,808,-2600,-1056,101,458,0,0
65.61374,-16384,660,-2480,-1040,78,426,0,0
65.64692,-16444,692,-2476,-1056,-27,386,0,0
65.69668,-16392,660,-2532,-1072,14,322,0,0
65.77962,-16380,808,-2664,-1040,86,517,0,0
65.87915,-16332,780,-2840,-1072,33,628,0,0
65.91232,-16356,752,-2568,-1040,53,351,0,0
65.96209,-16328,720,-2520,-1024,122,836,0,0
66.01185,-16188,676,-2652,-1040,124,397,0,0
66.06161,-16332,672,-2840,-1056,124,565,0,0
66.14453,-16316,652,-2948,-1040,122,437,0,0
66.19431,-16420,412,-2804,-1056,90,492,0,0
66.27725,-16340,712,-2832,-1088,184,594,0,0
66.32702,-16316,536,-2960,-1056,151,736,0,0
66.36019,-16244,656,-2864,-1056,117,181,0,0
66.40996,-16252,492,-3148,-1056,97,459,0,0
66.45972,-16392,624,-3140,-1056,80,488,0,0
66.50948,-16224,628,-2756,-1024,233,580,0,0
66.55924,-16392,652,-3152,-1056,279,755,0,0
66.6256,-16224,516,-3136,-1072,330,936,0,0
66.67536,-16272,340,-3420,-1056,245,463,0,0
66.72512,-16208,416,-3508,-1008,261,857,0,0
66.77489,-16144,336,-3876,-1040,295,559,0,0
66.82465,-16200,260,-3428,-1040,139,89,0,0
66.87479,-16112,372,-3332,-1056,201,854,0,0
66.95776,-16428,-96,-3656,-1072,345,423,0,0
66.99094,-16108,356,-3772,-1056,332,514,0,0
67.04072,-16180,268,-3916,-1040,174,446,0,0
67.0905,-16212,180,-3700,-1056,98,177,0,0
67.14028,-16136,320,-3944,-1056,122,280,0,0
67.19006,-16180,216,-3692,-1040,111,449,0,0
67.22324,-16124,164,-3736,-1056,136,428,0,0
67.35599,-16176,260,-3916,-1040,92,201,0,0
67.40576,-16232,208,-3836,-1040,19,182,0,0
67.45554,-16164,280,-3548,-1056,151,317,0,0
67.48873,-16132,196,-3784,-1040,153,357,0,0
67.53851,-16236,168,-3868,-1072,145,228,0,0
67.57169,-16128,100,-3592,-1072,160,498,0,0
67.63806,-16168,152,-3900,-1040,238,-5,0,0
67.72103,-16088,-48,-3992,-1024,57,653,0,0
67.77081,-16076,176,-4008,-1056,-75,166,0,0
67.80399,-16100,124,-3668,-1040,154,122,0,0
67.85378,-16144,-48,-4096,-1040,73,239,0,0
67.90355,-16124,340,-4012,-1040,88,268,0,0
67.95333,-16104,76,-4140,-1040,3,367,0,0
67.98652,-16112,152,-4128,-1040,43,346,0,0
68.0363,-16356,124,-3776,-1008,114,692,0,0
68.11926,-16084,156,-3912,-1056,196,830,0,0
68.16904,-16116,-76,-4376,-1024,213,922,0,0
68.21881,-16020,8,-4320,-1056,180,620,0,0
68.252,-16012,4,-4168,-1072,-7,306,0,0
68.30177,-15976,128,-4244,-1056,31,202,0,0
68.40133,-16128,-16,-4224,-1072,45,82,0,0
68.43404,-16024,80,-4080,-1040,20,199,0,0
68.48382,-16092,16,-4292,-1056,-72,139,0,0
68.53355,-16168,-152,-4324,-1040,-26,310,0,0
68.5833,-16056,-16,-4212,-1008,-72,181,0,0
68.61647,-16036,56,-4136,-1024,-56,157,0,0
68.66623,-16012,64,-4164,-1056,93,352,0,0
68.74915,-15968,88,-4440,-1056,83,77,0,0
68.84866,-16064,-32,-4168,-1040,27,268,0,0
68.88184,-16088,-96,-4712,-1040,44,376,0,0
68.98135,-15980,4,-4328,-1056,12,201,0,0
69.08085,-16016,-36,-4332,-1072,72,220,0,0
69.16377,-15936,-60,-4368,-1040,81,296,0,0
69.2467,-16000,28,-4524,-1056,45,148,0,0
69.29646,-16068,-44,-4252,-1056,24,324,0,0
69.37938,-15936,-120,-4172,-1056,82,313,0,0
69.42913,-15992,-160,-4540,-1024,-20,274,0,0
69.47716,-15988,-172,-4628,-1024,-35,219,0,0
69.52864,-15976,-180,-4384,-1040,-138,210,0,0
69.61156,-15944,-64,-4552,-1024,-62,199,0,0
69.64474,-16048,-116,-4528,-1040,-6,218,0,0
69.69449,-16020,-36,-4588,-1056,-91,216,0,0
69.74424,-16008,-72,-4640,-1040,-91,180,0,0
69.79399,-16028,-88,-4456,-1040,0,33,0,0
69.84375,-15896,-100,-4484,-1008,-88,89,0,0
69.87691,-16004,-88,-4540,-1024,-12,81,0,0
69.92667,-16148,-56,-4532,-1040,-19,80,0,0
70.0096,-16008,-156,-4332,-1024,-46,257,0,0
70.05936,-15944,-100,-4536,-1056,-49,102,0,0
70.10911,-15996,16,-4368,-1056,-49,147,0,0
70.14227,-15948,-120,-4592,-1040,-68,265,0,0
70.19202,-15936,-12,-4480,-1056,-36,118,0,0
70.24178,-16076,-80,-4600,-1072,-139,109,0,0
70.30812,-15932,-216,-4452,-1056,-86,205,0,0
70.37446,-15988,-56,-4328,-1008,-38,127,0,0
70.42422,-15992,-60,-4512,-1056,-174,210,0,0
70.47397,-16032,-156,-4388,-1056,-36,334,0,0
70.50714,-15876,-152,-4508,-1072,-87,60,0,0
70.55689,-16000,-44,-4356,-1056,-68,100,0,0
70.63982,-16056,4,-4380,-1072,-92,241,0,0
70.68996,-16064,0,-4516,-1056,4,225,0,0
70.7398,-15932,-56,-4488,-1072,-71,217,0,0
70.77299,-15980,-28,-4420,-1056,-53,88,0,0
70.82278,-15948,-32,-4516,-1056,-82,139,0,0
70.87258,-16084,20,-4456,-1040,-41,249,0,0
70.92238,-16048,-48,-4504,-1040,-101,106,0,0
71.00536,-15992,56,-4304,-1024,-150,49,0,0
71.03856,-16080,32,-4440,-1040,-148,125,0,0
71.10495,-16012,-76,-4488,-1056,-90,131,0,0
71.12155,-16040,-4,-4340,-1056,-128,54,0,0
71.18794,-16024,-40,-4500,-1040,-99,238,0,0
71.25433,-15920,12,-4372,-1056,-55,136,0,0
71.32073,-15984,-96,-4432,-1072,-79,140,0,0
71.37052,-15980,64,-4384,-1040,-68,183,0,0
71.42033,-15988,104,-4332,-1024,-55,257,0,0
71.45351,-15960,72,-4572,-1024,-22,107,0,0
71.55311,-16124,-100,-4244,-1040,-36,92,0,0
71.5863,-15944,-12,-4548,-1040,-78,154,0,0
71.68543,-16048,-36,-4492,-1056,-133,-30,0,0
71.71848,-16048,-36,-4532,-1024,-121,235,0,0
71.81803,-16036,-8,-4404,-1024,-103,66,0,0
71.86778,-15936,0,-4368,-1024,-59,199,0,0
71.90095,-15972,52,-4560,-1088,-64,233,0,0
72.00044,-16048,80,-4428,-1040,-21,132,0,0
72.03361,-15896,-20,-4612,-1024,-119,211,0,0
72.08336,-15956,64,-4540,-1072,-169,61,0,0
72.1331,-16084,76,-4416,-1008,-240,61,0,0
72.18285,-16040,-48,-4280,-1040,-232,-26,0,0
72.26576,-16140,88,-4124,-1040,37,387,0,0
72.31551,-15976,144,-4500,-1056,-45,206,0,0
72.34867,-15976,80,-4376,-1040,-25,188,0,0
72.39842,-16056,4,-4416,-1040,-97,131,0,0
72.44817,-15968,76,-4352,-1056,-50,66,0,0
72.49792,-16028,-60,-4512,-1040,-20,222,0,0
72.53108,-16020,-20,-4432,-1008,-63,6,0,0
72.66412,-15956,24,-4604,-1056,39,259,0,0
72.71397,-16036,40,-4368,-1040,-44,160,0,0
72.76376,-16040,-76,-4360,-1040,-82,83,0,0
72.79697,-16124,56,-4376,-1072,-147,152,0,0
72.84676,-16140,-16,-4508,-1088,-109,131,0,0
72.89655,-15932,-8,-4356,-1040,-192,96,0,0
72.94634,-16020,60,-4324,-1056,-35,218,0,0
73.02934,-15968,112,-4356,-1040,-110,99,0,0
73.07913,-16100,-48,-4308,-1040,-34,241,0,0
73.11233,-16016,0,-4464,-1024,-150,51,0,0
73.16191,-16124,68,-4436,-1056,0,289,0,0
73.21191,-16004,0,-4328,-1040,-100,129,0,0
73.2617,-16004,124,-4560,-1056,-19,202,0,0
73.2949,-16016,60,-4340,-1040,-31,196,0,0
73.3447,-16028,80,-4500,-1056,-106,111,0,0
73.42769,-15972,-4,-4188,-1056,-47,133,0,0
73.47748,-16016,-32,-4380,-1040,-47,190,0,0
73.52728,-16016,4,-4260,-1024,-93,137,0,0
73.61027,-15960,52,-4496,-1008,-85,96,0,0
73.66006,-16040,48,-4328,-1056,-35,221,0,0
73.70985,-15976,-24,-4412,-1040,-33,262,0,0
73.75964,-15908,-32,-4304,-1056,-89,201,0,0
73.84264,-16140,-44,-4432,-1056,-89,130,0,0
73.87583,-15972,12,-4448,-1040,-94,280,0,0
73.92562,-16040,0,-4384,-1040,-75,164,0,0
73.97542,-15980,16,-4376,-1024,-88,75,0,0
74.02521,-16108,-60,-4320,-1008,-87,238,0,0
74.075,-16044,96,-4468,-1040,-22,162,0,0
74.10819,-15968,52,-4360,-1024,-103,141,0,0
74.15799,-16024,24,-4340,-1056,-131,202,0,0
74.24097,-16020,8,-4484,-1056,-75,134,0,0
74.29077,-16044,112,-4452,-1056,-70,116,0,0
74.37376,-16072,-32,-4512,-1056,-117,160,0,0
74.42355,-15964,-8,-4492,-1024,-86,196,0,0
74.45674,-16036,-88,-4244,-1024,-65,174,0,0
74.52314,-16104,-72,-4472,-1040,-90,123,0,0
74.65592,-16020,64,-4236,-1040,-138,185,0,0
74.68912,-16044,20,-4372,-1040,-52,28,0,0
74.73891,-15916,36,-4420,-1056,-48,-179,0,0
74.7887,-15908,-204,-4408,-1056,-37,-161,0,0
74.8717,-16132,76,-4284,-1056,-207,146,0,0
74.92149,-15892,-72,-4388,-1040,-104,141,0,0
74.9688,-16072,20,-4452,-1040,-151,50,0,0
75.03767,-15964,0,-4240,-1072,-211,65,0,0
75.08747,-16132,56,-4348,-1072,-163,223,0,0
75.13726,-15980,124,-4488,-1024,-143,84,0,0
75.18706,-15996,104,-4336,-1040,-159,44,0,0
75.23635,-16060,112,-4364,-1056,-60,-293,0,0
75.28615,-16116,32,-4116,-1056,-9,-203,0,0
75.31934,-16024,112,-4416,-1040,-246,216,0,0
75.41894,-16096,180,-4224,-1024,-174,114,0,0
75.46873,-16072,32,-4172,-1024,-125,187,0,0
75.50193,-15972,0,-4372,-1056,-159,-47,0,0
75.55172,-16148,-24,-3964,-1056,-146,33,0,0
75.60152,-16084,128,-4216,-1056,-142,33,0,0
75.65131,-16072,240,-4260,-1024,-81,180,0,0
75.6845,-16080,-28,-3980,-1040,-83,87,0,0
75.76749,-16156,116,-4236,-1040,-107,105,0,0
75.81729,-16100,124,-3964,-1056,-69,-3,0,0
75.86708,-16044,76,-4244,-1040,-163,225,0,0
75.91688,-16060,164,-3984,-1040,-15,101,0,0
75.95007,-16024,124,-4236,-1040,-106,272,0,0
75.99987,-16132,156,-4372,-1056,-242,142,0,0
76.08286,-16180,132,-4168,-1024,-85,306,0,0
76.13265,-16044,136,-4296,-1024,-118,104,0,0
76.18244,-16208,228,-4264,-1056,-137,232,0,0
76.21564,-16064,152,-4240,-1024,-144,223,0,0
76.26543,-16112,56,-4192,-1072,-57,148,0,0
76.31522,-16116,172,-4372,-1040,-70,135,0,0
76.34841,-16068,20,-4184,-1056,-61,273,0,0
76.44801,-16104,56,-4300,-1056,-83,239,0,0
76.4978,-16004,152,-4064,-1040,-49,226,0,0
76.54759,-16028,144,-4280,-1040,-43,157,1,0
76.58079,-16064,124,-4132,-1056,-18,263,1,0
76.68038,-16108,-8,-4328,-1056,-116,100,1,0
76.73017,-15976,176,-4076,-1056,-15,345,1,0
76.76337,-16056,68,-4288,-1040,-24,254,1,0
76.81316,-16180,88,-4144,-1040,-67,128,1,0
76.86296,-16024,132,-4312,-1040,-85,334,1,0
76.94595,-16040,144,-4316,-1072,-115,167,1,0
76.99574,-16008,4,-4076,-1040,-101,107,1,0
77.02894,-16108,80,-4376,-1040,-86,136,1,0
77.06213,-16028,128,-4216,-1024,-111,157,1,0
77.12852,-16016,208,-4300,-1040,-114,145,1,0
77.21152,-16124,64,-4328,-1056,-90,214,1,0
77.26131,-15972,36,-4304,-1024,-79,167,1,0
77.29449,-16124,224,-4152,-1040,-95,106,1,0
77.36041,-16040,136,-4216,-1024,-41,182,1,0
77.44343,-16016,76,-4304,-1024,-35,189,1,0
77.52644,-16076,124,-4132,-1024,-56,174,1,0
77.57624,-16020,176,-4340,-1024,-134,181,1,0
77.60944,-16028,8,-4528,-1040,-72,264,1,0
77.67585,-16000,148,-4296,-1040,-43,156,1,0
77.75886,-16088,0,-4276,-1024,-102,122,1,0
77.84187,-16020,64,-4340,-1024,-137,264,1,0
77.89167,-16064,112,-4228,-1040,-26,14,1,0
77.94147,-16024,16,-4292,-1072,-13,278,1,0
77.97468,-16048,88,-4376,-1040,-49,234,1,0
78.02448,-16044,76,-4328,-1040,-107,94,1,0
78.1573,-16052,40,-4320,-1024,-141,65,1,0
78.24031,-16100,-76,-4340,-1040,-338,-71,1,0
78.30671,-15952,192,-4432,-1056,-310,184,1,0
78.33991,-16164,92,-4316,-1056,-228,104,1,0
78.38972,-16088,-80,-4196,-1024,-258,208,1,0
78.42292,-15988,-12,-4308,-1040,-271,211,1,0
78.47272,-16060,100,-4256,-1024,-301,215,1,0
78.57184,-16028,-48,-4340,-1056,-308,89,1,0
78.60495,-16024,168,-4196,-1008,-362,-364,1,0
78.65477,-15964,84,-4228,-1040,-262,109,1,0
78.70454,-16048,64,-4424,-1024,-270,-183,1,0
78.73772,-16152,216,-4348,-1056,-416,-257,1,0
78.78751,-16100,316,-3980,-1040,-316,8,1,0
78.87048,-16212,68,-4412,-1056,-368,-482,1,0
78.92025,-16108,76,-4316,-1024,-635,-91,1,0
78.97003,-16112,180,-3360,-1056,-445,-410,1,0
79.01981,-16096,264,-4160,-1040,-224,-47,1,0
79.06959,-16216,192,-3844,-1040,-404,-127,1,0
79.10278,-16096,260,-3744,-1024,-285,57,1,0
79.18574,-16032,264,-4356,-1024,-438,-79,1,0
79.23551,-16180,-12,-3412,-1072,-543,-1011,1,0
79.28529,-16236,12,-2920,-1040,-322,-677,1,0
79.33506,-16260,244,-3736,-1056,-313,-390,1,0
79.36825,-16208,136,-3640,-1024,-370,-72,1,0
79.41803,-16188,196,-3460,-1040,-502,-280,1,0
79.50099,-16176,400,-3452,-1024,-403,-124,1,0
79.55077,-16380,400,-3144,-1024,-6,849,1,0
79.60055,-16016,496,-4012,-1056,-156,1985,1,0
79.65032,-16072,-412,-3608,-1024,-106,-153,1,0
79.68351,-16196,480,-3980,-1056,-199,407,1,0
79.73328,-16096,248,-3652,-1040,-296,115,1,0
79.83284,-16008,476,-3608,-1008,-113,197,1,0
79.86603,-16180,212,-3900,-1040,-38,1167,1,0
79.9158,-16072,388,-4036,-1056,-190,134,1,0
79.96558,-16068,256,-4080,-1040,-330,321,1,0
80.04855,-15980,444,-3924,-1072,-227,196,1,0
80.13152,-16132,236,-3744,-1040,-157,-22,1,0
80.18129,-16316,200,-4020,-1024,-327,2,1,0
80.23107,-16072,380,-3600,-1040,-267,-145,1,0
80.28085,-16164,376,-3692,-1024,-52,294,1,0
80.31403,-16192,308,-3976,-1008,-267,-81,1,0
80.44678,-16152,296,-3556,-1040,-245,267,1,0
80.49655,-16176,244,-3768,-1024,-104,133,1,0
80.54633,-16060,436,-3948,-1056,-258,-35,1,0
80.59611,-16136,340,-3696,-1040,-203,240,1,0
80.6127,-16168,500,-3548,-1040,-193,175,1,0
80.71226,-16268,320,-4128,-1024,-212,314,1,0
80.76204,-16192,424,-3664,-1040,-82,299,1,0
80.81181,-16184,292,-3764,-1040,-119,2,1,0
80.8616,-16236,336,-3812,-1024,-200,96,1,0
80.91137,-16100,428,-3572,-1024,-146,224,1,0
80.99434,-16128,400,-3872,-1040,-187,1,1,0
81.04411,-16044,360,-3796,-1024,-245,0,1,0
81.0773,-16280,424,-3808,-1008,-127,106,1,0
81.12708,-16260,320,-3664,-1008,-145,197,1,0
81.17686,-16144,584,-3600,-1040,-110,49,1,0
81.22663,-16112,340,-3460,-1040,-117,15,1,0
81.25982,-16296,376,-3612,-1040,-37,336,1,0
81.35938,-16220,316,-4340,-1024,-94,380,1,0
81.39256,-16188,560,-3420,-1008,-112,249,1,0
81.44234,-16200,396,-3844,-1024,-84,185,1,0
81.49212,-16196,416,-3724,-1024,-135,-63,1,0
81.57509,-16096,488,-3664,-1040,-75,130,1,0
81.62486,-16092,488,-3624,-1056,-67,219,1,0
81.65804,-16200,424,-3580,-1040,-89,165,1,0
81.72441,-16240,528,-3792,-1072,-163,-203,1,0
81.741,-16360,292,-3368,-1024,-199,-135,1,0
81.80738,-16024,356,-3880,-1040,-273,242,1,0
81.89034,-16196,616,-3644,-1040,-144,221,1,0
81.94012,-16192,336,-3664,-1040,-141,155,1,0
81.9899,-16192,436,-3668,-1040,-98,151,1,0
82.03968,-16284,436,-3688,-1040,-159,42,1,0
82.07287,-16196,372,-3612,-1056,-142,193,1,0
82.12264,-16264,348,-3424,-1072,-121,-225,1,0
82.2056,-16244,648,-3372,-1024,-34,220,1,0
82.25538,-16084,468,-3688,-1024,-54,86,1,0
82.30516,-16288,564,-3564,-1056,-95,124,1,0
82.38812,-16300,416,-3444,-1040,-129,133,1,0
82.4379,-16236,480,-3560,-1024,-103,306,1,0
82.47109,-16236,472,-3620,-1056,-24,67,1,0
82.52087,-16240,508,-3488,-1008,-51,154,1,0
82.57064,-16176,440,-3608,-1040,-60,254,1,0
82.6702,-16224,360,-3712,-1040,-123,65,1,0
82.75317,-16248,536,-3416,-1024,-101,291,1,0
82.80294,-16252,492,-3688,-992,-105,65,1,0
82.83613,-16196,552,-3744,-1040,-78,130,1,0
82.8859,-16192,440,-3648,-1040,-84,291,1,0
82.93568,-16176,576,-3472,-1024,-31,130,1,0
83.06843,-16252,540,-3676,-1056,-116,54,1,0
83.1182,-16268,596,-3608,-1040,-60,164,1,0
83.15139,-16048,452,-3412,-1040,-26,312,1,0
83.20117,-16212,408,-3560,-1024,-74,157,1,0
83.25095,-16172,420,-3612,-1056,-100,144,1,0
83.30073,-16280,476,-3832,-1024,-133,85,1,0
83.3837,-16188,540,-3452,-1024,3,166,1,0
83.41689,-16280,432,-3904,-1040,-77,141,1,0
83.46666,-16244,536,-3476,-1040,-210,-43,1,0
83.51644,-16360,504,-3420,-1040,39,347,1,0
83.54963,-16128,400,-3788,-1040,-125,-29,1,0
83.5994,-16208,460,-3448,-1088,-101,117,1,0
83.64919,-16196,504,-3508,-1024,-50,147,1,0
83.73215,-16156,460,-3592,-1024,-84,72,1,0
83.78193,-16268,432,-3660,-1040,-45,300,1,0
83.8317,-16140,576,-3548,-1008,-147,-185,1,0
83.86489,-16220,500,-3392,-1056,-69,296,1,0
83.96445,-16204,548,-3672,-1056,-145,125,1,0
84.01376,-16128,456,-3664,-1024,-44,37,1,0
84.04695,-16168,520,-3608,-1040,-110,119,1,0
84.0967,-16096,620,-3420,-1008,-72,269,1,0
84.14645,-16272,460,-3732,-1040,-4,59,1,0
84.19619,-16240,440,-3764,-1040,-40,84,1,0
84.22935,-16216,456,-3608,-1040,-122,215,1,0
84.32885,-16188,500,-3528,-1056,-66,106,1,0
84.36201,-16208,508,-3624,-1008,-110,101,1,0
84.41175,-16216,520,-3432,-1056,-115,121,1,0
84.46149,-16328,572,-3692,-1008,-88,146,1,0
84.51125,-16284,420,-3412,-1056,-94,104,1,0
84.5444,-16160,356,-3228,-1024,-63,249,1,0
84.69363,-16144,480,-3384,-1024,-55,-78,1,0
84.7268,-16152,504,-3484,-1056,-79,210,1,0
84.77654,-16204,568,-3588,-1040,-37,39,1,0
84.8097,-16308,568,-3528,-1040,-20,342,1,0
84.85944,-16300,624,-3528,-1040,-58,45,1,0
84.95893,-16196,452,-3808,-1008,-113,204,1,0
84.9921,-16228,480,-3296,-1024,-162,-120,1,0
85.04184,-16128,672,-3620,-1040,-31,442,1,0
85.09159,-16244,364,-3540,-1056,-91,125,1,0
85.14133,-16064,500,-3592,-1024,-56,236,1,0
85.1745,-16220,408,-3444,-1024,-82,91,1,0
85.22424,-16228,436,-3368,-1040,-90,171,1,0
85.32373,-16168,556,-3448,-1008,-50,190,1,0
85.3569,-16132,560,-3460,-1024,-51,252,1,0
85.39378,-16148,520,-3760,-1056,-98,76,1,0
85.44382,-16352,448,-3464,-1072,-98,94,1,0
85.49358,-16240,500,-3556,-1024,-96,250,1,0
85.54333,-16268,556,-3620,-1024,-104,-81,1,0
85.59308,-16140,576,-3448,-1040,11,87,1,0
85.676,-16196,612,-3560,-1056,-106,210,1,0
85.72576,-16168,516,-3524,-1040,-63,254,1,0
85.80869,-16260,660,-3624,-1040,-69,235,1,0
85.84185,-16160,488,-3288,-1024,-62,246,1,0
85.90819,-16156,608,-3880,-1024,-34,271,1,0
85.99111,-16096,472,-3364,-1008,-44,159,1,0
86.0077,-16236,520,-3736,-1040,-62,175,1,0
86.07404,-16196,408,-3528,-1040,-66,207,1,0
86.17355,-16324,532,-3600,-1056,-64,201,1,0
86.2233,-16240,392,-3496,-1008,-124,166,1,0
86.30622,-16164,532,-3544,-1024,-32,215,1,0
86.35597,-16228,548,-3632,-1056,-182,-23,1,0
86.40573,-16276,600,-3540,-1024,-38,245,1,0
86.4389,-16172,568,-3484,-1056,-88,37,1,0
86.48866,-16192,580,-3520,-1024,-42,97,1,0
86.57158,-16180,312,-3528,-1040,-18,334,1,0
86.62133,-16164,664,-3616,-992,-127,18,1,0
86.67108,-16292,636,-3680,-1040,-41,400,1,0
86.70425,-16184,476,-3332,-1040,-55,120,1,0
86.77059,-16176,532,-3544,-1008,-209,-58,1,0
86.80376,-16252,640,-3576,-1040,-133,384,1,0
86.85352,-16168,580,-3440,-1056,-67,88,1,0
86.93644,-16196,520,-3492,-1040,-73,161,1,0
86.98619,-16228,536,-3712,-1024,-76,141,1,0
87.03594,-16160,524,-3376,-1056,-124,52,1,0
87.06911,-16252,492,-3648,-1024,-99,294,1,0
87.11887,-16192,508,-3388,-1024,-146,-71,1,0
87.16862,-16192,600,-3292,-1056,-62,227,1,0
87.25155,-16136,752,-3364,-1040,-45,253,1,0
87.3013,-16268,400,-3648,-1024,-50,49,1,0
87.33447,-16200,584,-3508,-992,-147,19,1,0
87.38422,-16316,552,-3524,-1040,-57,198,1,0
87.43398,-16228,584,-3324,-1008,-68,222,1,0
87.46715,-16320,576,-3548,-1008,-48,117,1,0
87.56665,-16276,588,-3548,-1024,-111,138,1,0
87.66616,-16184,572,-3128,-1024,-95,-99,1,0
87.69933,-16196,528,-3648,-1024,-93,337,1,0
87.74908,-16104,532,-3364,-1008,-58,249,1,0
87.79884,-16176,588,-3484,-992,-97,83,1,0
87.83201,-16156,580,-3392,-1008,14,161,1,0
87.89835,-16232,540,-3620,-1024,-97,220,1,0
87.93151,-16240,548,-3352,-1024,-70,150,1,0
88.01443,-16164,432,-3760,-1024,-10,398,1,0
88.0476,-16136,632,-3468,-1024,-141,-114,1,0
88.09735,-16156,568,-3388,-1008,-41,244,1,0
88.19686,-16192,596,-3728,-1024,-54,207,1,0
88.24661,-16236,476,-3468,-1056,-84,157,1,0
88.29636,-16304,616,-3444,-1040,-103,7,1,0
88.37929,-16144,548,-3376,-1072,-41,446,1,0
88.42904,-16204,496,-3624,-1008,-120,20,1,0
88.4788,-16216,584,-3420,-1040,-25,230,1,0
88.59489,-16208,516,-3940,-1024,-154,45,1,0
88.64465,-16144,444,-3412,-1040,-103,95,1,0
88.6944,-16220,644,-3448,-1072,-119,-19,1,0
88.74416,-16308,524,-3524,-1056,-102,228,1,0
88.77733,-16300,488,-3456,-1024,-226,-425,1,0
88.82708,-16412,572,-3404,-1024,-16,605,1,0
88.96011,-16256,436,-3584,-1056,-53,135,1,0
89.00986,-16216,532,-3264,-1040,-81,58,1,0
89.05962,-16172,532,-3264,-1040,-90,86,1,0
89.0928,-16212,576,-3424,-992,-17,255,1,0
89.14256,-16152,476,-3664,-1040,-103,136,1,0
89.19231,-16144,656,-3352,-1008,-45,200,1,0
89.24207,-16308,528,-3504,-1040,-153,23,1,0
89.30842,-16228,744,-3204,-1008,3,326,1,0
89.37476,-16148,488,-3572,-992,-69,122,1,0
89.40794,-16108,584,-3180,-1024,-89,368,1,0
89.4577,-16172,440,-3416,-1056,-82,44,1,0
89.50745,-16284,660,-3584,-1040,-62,174,1,0
89.55721,-16212,648,-3268,-1040,-107,-12,1,0
89.59038,-16284,512,-3540,-1056,-25,353,1,0
89.6899,-16320,612,-3700,-1024,-173,71,1,0
89.72308,-16204,592,-3356,-1056,-196,-141,1,0
89.77283,-16212,580,-3268,-1024,-133,107,1,0
89.82259,-16292,616,-3232,-1024,-96,134,1,0
89.87235,-16256,616,-3464,-1024,-73,195,1,0
89.90553,-16156,596,-3580,-992,-116,74,1,0
90.00504,-16204,692,-3328,-1040,-25,172,0,0
90.03821,-16288,640,-3468,-1040,-83,246,0,0
90.08797,-16252,468,-3676,-1008,-193,6,0,0
90.13773,-16180,580,-3200,-1024,-36,357,0,0
90.1709,-16260,492,-3396,-1056,-68,202,0,0
90.23724,-16272,620,-3280,-1024,-97,237,0,0
90.27042,-16012,580,-3528,-1056,-69,311,0,0
90.36993,-16340,664,-3232,-1024,-50,130,0,0
90.38652,-16228,584,-3468,-1024,-43,269,0,0
90.50262,-16148,604,-3460,-1056,-119,28,0,0
90.53579,-16260,568,-3380,-1008,-74,323,0,0
90.58555,-16340,632,-3332,-1040,-74,143,0,0
90.63531,-16244,616,-3664,-1056,-97,189,0,0
90.66849,-16232,596,-3180,-1040,-111,181,0,0
90.76801,-16204,564,-3436,-1024,-44,176,0,0
90.80118,-16180,664,-3416,-1008,-95,210,0,0
90.85094,-16240,532,-3240,-1024,-105,10,0,0
90.90069,-16196,580,-3536,-1072,-143,88,0,0
90.93386,-16140,636,-3232,-1056,-156,-33,0,0
91.00021,-16284,552,-3436,-1008,-13,173,0,0
91.08314,-16164,588,-3584,-1008,-81,201,0,0
91.1329,-16176,632,-3156,-1024,-83,210,0,0
91.21583,-16280,692,-3376,-1024,-32,84,0,0
91.26559,-16228,560,-3600,-1024,-90,143,0,0
91.31535,-16344,644,-3800,-1024,-68,198,0,0
91.34852,-16268,552,-3432,-1024,-131,31,0,0
91.39828,-16200,668,-3320,-1024,-78,248,0,0
91.51438,-16324,516,-3336,-1008,-121,-20,0,0
91.56413,-16360,640,-3228,-976,-57,180,0,0
91.63049,-16248,660,-3444,-1008,-74,140,0,0
91.64707,-16196,712,-3344,-1008,-6,181,0,0
91.69683,-16180,548,-3444,-1024,-49,295,0,0
91.76318,-16308,620,-3440,-1040,-58,235,0,0
91.84611,-16204,596,-3176,-1024,25,370,0,0
91.94563,-16248,672,-3392,-1024,-37,-34,0,0
91.9788,-16176,484,-3368,-1024,62,511,0,0
92.02856,-16280,616,-3820,-1024,-6,168,0,0
92.07832,-16204,716,-3448,-1040,26,443,0,0
92.0949,-16116,568,-3580,-1024,25,393,0,0
92.16125,-16068,452,-3688,-992,-41,90,0,0
92.21101,-16152,560,-3488,-1040,44,309,0,0
92.27734,-16164,520,-3676,-992,118,401,0,0
92.34369,-16228,568,-3348,-1008,-2,193,0,0
92.39345,-16208,664,-3412,-1056,142,654,0,0
92.41003,-16184,536,-3744,-1024,161,266,0,0
92.47638,-16012,380,-3472,-1040,124,558,0,0
92.52614,-16160,616,-3752,-1056,230,195,0,0
92.57541,-16088,388,-3604,-1040,239,435,0,0
92.65828,-15944,520,-3780,-1024,306,570,0,0
92.70801,-16156,380,-3800,-1056,323,407,0,0
92.79089,-16232,504,-3880,-1056,248,552,0,0
92.84063,-16104,404,-4256,-992,135,293,0,0
92.8572,-16148,360,-3948,-1056,235,515,0,0
92.92352,-16144,208,-4068,-992,119,374,0,0
92.97324,-16092,372,-3832,-1024,207,363,0,0
93.05612,-15936,536,-3552,-1024,372,642,0,0
93.10585,-16284,88,-4316,-1024,400,793,0,0
93.13901,-16140,244,-4164,-992,273,500,0,0
93.18874,-15804,380,-4088,-1008,446,676,0,0
93.23846,-16160,-16,-4304,-1056,537,959,0,0
93.28819,-16012,208,-4320,-1040,311,470,0,0
93.33832,-15912,124,-4208,-1024,422,805,0,0
93.42126,-16040,-116,-4492,-1024,489,609,0,0
93.47102,-16056,4,-4536,-1024,367,647,0,0
93.50418,-16004,-44,-4592,-1008,238,505,0,0
93.55394,-15916,24,-4532,-1040,263,337,0,0
93.60369,-15840,-228,-4452,-1008,80,341,0,0
93.63686,-15972,-240,-4552,-1024,178,245,0,0
93.68661,-15996,-180,-4744,-1008,261,488,0,0
93.78613,-15852,-140,-4704,-1024,68,242,0,0
93.81929,-15972,-144,-4708,-1008,-88,168,0,0
93.86906,-16076,-156,-4488,-1024,-13,214,0,0
93.91881,-15948,-212,-4612,-1024,66,333,0,0
93.96856,-15976,-136,-4720,-992,-35,77,0,0
94.00173,-15992,-136,-4896,-1024,-56,197,0,0
94.10124,-15920,-116,-4580,-1040,35,175,0,0
94.13441,-15956,-100,-4620,-1008,15,262,0,0
94.23392,-16016,-48,-4460,-1024,127,368,0,0
94.26709,-15916,-208,-4968,-1056,22,384,0,0
94.31684,-15888,-172,-4784,-1024,48,373,0,0
94.3666,-15936,-228,-4744,-1024,-63,434,0,0
94.44952,-16000,-352,-4492,-1040,110,391,0,0
94.49928,-16024,-292,-4924,-992,35,441,0,0
94.54903,-15948,-208,-4784,-1040,64,256,0,0
94.63196,-15892,-264,-4768,-1008,41,564,0,0
94.68171,-15952,-356,-4880,-1008,142,359,0,0
94.76463,-15888,-292,-4792,-1024,238,526,0,0
94.81439,-15948,-544,-4976,-1024,499,655,0,0
94.86414,-15776,-128,-4824,-1040,824,528,0,0
94.89732,-15692,-396,-5228,-992,98,129,0,0
94.99683,-15924,-256,-5076,-1040,15,232,0,0
95.04659,-15804,-440,-5104,-1024,-58,42,0,0
95.06317,-15852,-480,-4948,-1008,-138,-58,0,0
95.12951,-15780,-324,-5108,-1024,-25,206,0,0
95.16267,-15812,-376,-4840,-1024,-31,149,0,0
95.22901,-15896,-376,-4772,-1040,-50,242,0,0
95.31194,-15896,-316,-4880,-1024,-17,127,0,0
95.36205,-15856,-300,-4980,-1024,-31,262,0,0
95.39523,-15920,-328,-4996,-992,-39,169,0,0
95.44501,-15844,-320,-4864,-1040,-13,279,0,0
95.49478,-15892,-404,-5128,-1024,15,107,0,0
95.52796,-15732,-276,-4860,-1024,32,424,0,0
95.57773,-15864,-376,-4864,-1008,91,583,0,0
95.67727,-15712,-412,-5396,-1024,10,82,0,0
95.71045,-15740,-436,-5260,-1008,-12,215,0,0
95.76022,-15864,-400,-5100,-1024,-122,82,0,0
95.80999,-15712,-452,-5036,-1040,-53,194,0,0
95.85976,-15852,-408,-4992,-1024,-97,46,0,0
95.89294,-15828,-400,-5076,-1024,-34,191,0,0
95.97588,-15852,-364,-5008,-992,-64,72,0,0
96.02565,-15760,-352,-5084,-1040,-92,62,0,0
96.07542,-15780,-292,-5112,-1008,-46,30,0,0
96.123,-15888,-348,-5220,-1024,-76,144,0,0
96.15837,-15856,-312,-4840,-1024,-5,219,0,0
96.20814,-15856,-516,-5372,-1040,19,518,0,0
96.2579,-15712,-344,-5188,-1040,-30,102,0,0
96.34085,-15740,-276,-5084,-1040,-68,241,0,0
96.39014,-15856,-484,-5200,-992,-51,139,0,0
96.43991,-15876,-484,-5296,-1024,-96,156,0,0
96.47308,-15820,-396,-5012,-1008,-41,98,0,0
96.52285,-15796,-444,-5004,-1024,-146,211,0,0
96.57262,-15924,-312,-5012,-1040,-19,124,0,0
96.65556,-15748,-352,-4960,-1040,-74,170,0,0
96.70532,-15836,-392,-5188,-1024,-152,219,0,0
96.75509,-15880,-416,-4960,-1008,-111,83,0,0
96.80486,-15844,-312,-5116,-1024,-45,175,0,0
96.83803,-15744,-352,-5068,-1024,-10,173,0,0
96.88779,-15788,-364,-5112,-1024,-5,176,0,0
96.97074,-15848,-388,-5120,-1040,-69,206,0,0
97.02051,-15868,-328,-4908,-1024,-58,243,0,0
97.10345,-15752,-332,-5032,-1024,-104,8,0,0
97.15322,-15736,-448,-5224,-1024,-38,265,0,0
97.1864,-15964,-640,-5224,-992,-76,271,0,0
97.25275,-15896,-464,-5224,-1024,-1,196,0,0
97.28593,-15820,-424,-5248,-1008,-107,215,0,0
97.38546,-15780,-488,-5044,-1024,-60,78,0,0
97.46841,-15744,-432,-5236,-1040,-98,104,0,0
97.51817,-15888,-312,-4944,-992,-47,199,0,0
97.56793,-15712,-468,-5196,-1024,-56,242,0,0
97.60111,-15752,-464,-5108,-1024,-71,154,0,0
97.65088,-15732,-372,-5120,-1040,-50,271,0,0
97.68406,-15628,-504,-5312,-992,-92,198,0,0
97.78359,-15840,-336,-5104,-1024,-29,268,0,0
97.83336,-15812,-344,-5316,-1024,-41,161,0,0
97.88313,-15792,-468,-5092,-1024,-93,127,0,0
97.9163,-15812,-532,-5116,-1008,-118,112,0,0
97.96606,-15744,-520,-5188,-1008,-80,158,0,0
98.01583,-15728,-368,-5184,-1024,-25,121,0,0
98.09878,-15628,-340,-5208,-1040,-42,211,0,0
98.13195,-15852,-288,-5420,-1024,-74,65,0,0
98.1983,-15840,-440,-5116,-1040,-35,68,0,0
98.23148,-15848,-472,-4948,-1024,-33,118,0,0
98.28125,-15916,-372,-5328,-992,-89,200,0,0
98.33102,-15652,-388,-5220,-1024,-138,305,0,0
98.41396,-15776,-332,-5212,-1024,14,217,0,0
98.46372,-15784,-480,-5120,-1024,-86,-27,0,0
98.4969,-15948,-424,-5060,-1024,-38,407,0,0
98.54667,-15652,-500,-5220,-1008,-72,79,0,0
98.59644,-15832,-424,-5000,-1056,-52,195,0,0
98.6462,-15764,-396,-5024,-1008,-95,27,0,0
98.67938,-15836,-296,-5040,-1008,-43,242,0,0
98.77892,-15868,-280,-5008,-1008,-101,196,0,0
98.8121,-15748,-344,-5192,-1024,-110,191,0,0
98.86185,-15816,-420,-5152,-1072,-98,202,0,0
98.91162,-15832,-464,-5124,-1024,-49,198,0,0
98.96139,-15748,-412,-5136,-1040,-157,130,0,0
99.04433,-15772,-412,-5112,-1040,-118,271,0,0
99.09409,-15820,-444,-5152,-1008,-65,218,0,0
99.12728,-15796,-376,-5180,-992,-150,136,0,0
99.17705,-15868,-320,-4876,-1024,-108,192,0,0
99.22681,-15756,-412,-5232,-1008,-61,33,0,0
99.27657,-15912,-360,-5048,-1024,-114,215,0,0
99.35952,-15728,-444,-5248,-1024,-12,44,0,0
99.40929,-15716,-392,-5204,-1024,-181,131,0,0
99.44247,-15840,-364,-5124,-1008,-17,286,0,0
99.49223,-15776,-504,-5268,-1040,-72,117,0,0
99.542,-15876,-392,-5104,-976,-74,197,0,0
99.57517,-15764,-432,-5196,-992,-94,72,0,0
99.67471,-15776,-352,-5080,-1008,-92,150,0,0
99.70789,-15760,-328,-5032,-1024,-120,254,0,0
99.77424,-15804,-340,-5008,-1008,-65,247,0,0
99.80742,-15652,-348,-5132,-1056,-71,112,0,0
99.85718,-15772,-268,-5060,-1040,-62,158,0,0
99.89036,-15888,-520,-5236,-1056,-7,-58,0,0
100.0231,-15764,-552,-5104,-1008,-140,166,0,0
100.0728,-15772,-340,-5272,-1008,-81,131,0,0
100.1226,-15792,-356,-5176,-1024,-61,52,0,0
100.1724,-15736,-500,-5156,-1008,-41,216,0,0
100.2051,-15948,-420,-5164,-1024,-47,211,0,0
100.3045,-15764,-416,-5248,-1056,-88,189,0,0
100.3875,-15952,-280,-5108,-1008,-131,213,0,0
100.4372,-15764,-456,-5240,-1040,-84,219,0,0
100.487,-15768,-424,-5112,-1024,-134,132,0,0
100.5367,-15868,-464,-5124,-1008,-143,248,0,0
100.5699,-15760,-408,-5168,-992,-82,170,0,0
100.6196,-15728,-384,-4988,-1008,-91,212,0,0
100.7025,-15808,-364,-5108,-1040,-103,120,0,0
100.7523,-15676,-296,-5328,-992,-76,100,0,0
100.802,-15800,-412,-5092,-1008,-156,206,0,0
100.8518,-15772,-288,-5204,-1040,-150,101,0,0
100.8681,-15728,-436,-5476,-1056,-19,214,0,0
100.9347,-15780,-348,-5104,-1024,-91,111,0,0
101.0176,-15760,-360,-5324,-1024,-36,219,0,0
101.0673,-15728,-392,-5212,-1008,-28,169,0,0
101.1005,-15792,-304,-4892,-1024,-15,203,0,0
101.1672,-15756,-444,-5312,-1008,-160,193,0,0
101.2004,-15768,-452,-5212,-1040,-73,202,0,0
101.2501,-15856,-276,-5192,-1024,-39,174,0,0
101.3331,-15756,-448,-5228,-1024,-36,139,0,0
101.3829,-15844,-416,-5184,-1024,-126,146,0,0
101.4326,-15812,-396,-5336,-1024,-139,79,0,0
101.4824,-15784,-392,-4880,-1040,-91,169,0,0
101.5156,-15732,-368,-5172,-1024,-27,117,0,0
101.5487,-15696,-232,-5132,-1024,-99,68,0,0
101.6483,-15796,-512,-5272,-992,-139,109,0,0
101.698,-15848,-356,-4968,-1024,-147,50,0,0
101.7312,-15820,-444,-5496,-1040,-143,265,0,0
101.7976,-15856,-448,-5264,-1024,-87,234,0,0
101.8307,-15812,-424,-5200,-1024,-201,18,0,0
101.8805,-15864,-284,-4932,-992,-98,121,0,0
101.9635,-15784,-276,-5128,-1008,-186,107,0,0
102.0132,-15808,-360,-4988,-1024,23,-320,0,0
102.063,-15896,-452,-5032,-1040,-45,119,0,0
102.0962,-15980,-300,-5040,-992,-221,72,0,0
102.1459,-15896,-452,-4768,-1024,-80,56,0,0
102.1957,-15704,-312,-5132,-1024,-192,116,0,0
102.2786,-15780,-284,-4924,-1024,-230,97,0,0
102.3284,-15756,-280,-4920,-1040,-207,152,0,0
102.3782,-15936,-308,-4996,-1008,-200,196,0,0
102.4113,-15776,-288,-4828,-1008,-177,-23,0,0
102.4611,-15748,-260,-4884,-1040,-180,88,0,0
102.544,-15836,-300,-5120,-1024,-201,-45,0,0
102.5938,-15832,-188,-4888,-1024,-205,221,0,0
102.6436,-15928,-256,-5000,-1008,-150,52,0,0
102.6933,-15932,-60,-4832,-1024,-136,753,0,0
102.7763,-15540,-424,-5160,-1024,-175,182,0,0
102.826,-15848,-208,-4848,-1008,-192,-181,0,0
102.9256,-15824,-276,-4876,-1008,-118,-14,0,0
102.9422,-15780,-272,-4884,-1056,-204,89,0,0
103.0066,-15860,-284,-4868,-1024,-228,47,0,0
103.0583,-15756,-240,-5164,-1040,-170,-11,0,0
103.1412,-15900,-172,-5040,-1040,-178,52,0,0
103.191,-15812,-140,-5068,-1024,-140,-22,1,0
103.2408,-15836,-252,-5196,-976,-148,60,1,0
103.2574,-15840,-248,-4828,-992,-69,167,1,0
103.3569,-15888,-268,-4852,-1056,-63,31,1,0
103.4067,-15856,-256,-4784,-1024,47,462,1,0
103.4564,-15768,-16,-4796,-1024,-135,158,1,0
103.4896,-15836,-256,-4880,-1024,-11,161,1,0
103.5891,-15876,-316,-5004,-1008,-90,126,1,0
103.6223,-15852,-268,-4828,-1056,-127,269,1,0
103.6721,-15888,-288,-4896,-1008,-137,20,1,0
103.7218,-15792,-296,-4808,-992,11,343,0,0
103.7716,-15924,-176,-4908,-992,-116,208,0,0
103.8048,-15932,-148,-4896,-1008,-66,271,0,0
103.9043,-15912,-160,-5100,-1008,-46,194,0,0
103.9375,-15864,-364,-5056,-1024,-53,285,0,0
104.0038,-15816,-312,-5040,-1024,-58,299,0,0
104.037,-15824,-272,-5000,-1040,-72,430,0,0
104.12,-15756,-208,-4992,-992,-12,331,0,0
104.1697,-15832,-236,-5016,-1024,71,294,0,0
104.2195,-15796,-356,-5132,-960,-51,173,0,0
104.3024,-15888,-192,-5044,-1024,13,328,0,0
104.3522,-15808,-276,-5224,-992,36,249,0,0
104.3854,-15728,-228,-5336,-1024,40,295,0,0
104.4352,-15896,-324,-5200,-992,-111,282,0,0
104.4849,-15860,-292,-4980,-1024,-70,200,0,0
104.5347,-15776,-316,-5256,-992,-111,184,0,0
104.6176,-15772,-272,-5208,-992,-115,112,0,0
104.6674,-15920,-304,-5048,-1008,-98,138,0,0
104.7172,-15740,-316,-5024,-1008,-173,52,0,0
104.7669,-15864,-300,-5136,-1008,-46,283,0,0
104.8499,-15820,-228,-5252,-1024,-162,8,0,0
104.8996,-15800,-304,-5048,-1024,-139,30,0,0
104.9826,-15828,-324,-5288,-1008,-147,65,0,0
105.0323,-15852,-440,-5068,-992,-271,1,0,0
105.0821,-15764,-344,-5224,-1024,-311,204,0,0
105.0987,-15704,-136,-4832,-992,-657,-333,0,0
105.1651,-15880,-168,-5204,-1024,-487,-205,0,0
105.2148,-15784,-300,-5084,-992,-502,238,0,0
105.2812,-15812,-228,-4976,-1008,-719,-466,0,0
105.3475,-15760,144,-4904,-992,-632,-243,0,0
105.3973,-16020,-248,-4852,-992,-562,164,0,0
105.53,-15896,-216,-5188,-1024,-670,-711,0,0
105.5632,-15932,-4,-4716,-1008,-901,-561,0,0
105.6129,-15976,24,-4244,-1008,-548,-26,0,0
105.6627,-15864,-56,-4844,-1008,-489,-178,0,0
105.7457,-15892,112,-4508,-1008,-495,-388,0,0
105.8286,-15952,-28,-4448,-1040,-464,58,0,0
105.8784,-16024,-32,-4560,-992,-365,163,0,0
105.9281,-16000,84,-4096,-992,-407,-176,0,0
105.9613,-15840,-44,-4548,-1024,-336,-413,0,0
106.0277,-15916,160,-4432,-992,-609,-246,0,0
106.0612,-16172,64,-4460,-1008,-391,104,0,0
106.1609,-16004,88,-4360,-1024,-510,-603,0,0
106.194,-16520,-168,-4148,-1024,-503,81,0,0
106.2439,-15916,-24,-3828,-1024,3,-511,0,0
106.2937,-16180,164,-4532,-1024,-181,-308,0,0
106.3435,-16128,320,-4184,-992,-249,-552,0,0
106.3767,-16100,280,-3516,-992,-147,-340,0,0
106.4431,-16128,116,-4336,-1008,-163,-310,0,1
106.4431,-16152,288,-3632,-1024,-326,-465,0,1
106.5261,-16156,308,-3512,-1008,-207,-279,0,1
106.6091,-16112,228,-3956,-1008,-275,-8,0,1
106.6589,-16288,356,-3752,-1008,-311,-162,0,1
106.7253,-16256,232,-3564,-1008,-227,-205,0,1
106.7917,-16172,400,-3352,-992,-237,-133,0,1
106.8249,-16152,368,-3724,-1008,-110,269,0,1
106.8747,-16228,168,-3500,-1040,-205,-59,0,1
106.9245,-16248,416,-3384,-1008,-118,-282,0,1
106.9743,-16248,376,-3556,-992,-35,552,0,1
107.0075,-16240,380,-3616,-1024,-142,35,0,1
107.0739,-16204,384,-3288,-1024,-100,202,0,1
107.1403,-16296,296,-3660,-1008,-47,221,0,1
107.1901,-16144,292,-3688,-1040,-72,294,0,1
107.2399,-16264,312,-3608,-1008,-8,335,0,1
107.2731,-16176,276,-3648,-1008,-119,420,0,1
107.3229,-16148,392,-3644,-960,-120,133,0,1
107.4059,-16156,360,-3484,-1008,6,151,0,1
107.4557,-16188,376,-3552,-1008,-111,-14,0,1
107.5055,-16184,356,-3768,-1024,-126,273,0,1
107.5553,-16064,408,-3388,-1024,-145,-147,0,1
107.6051,-16304,376,-3668,-1024,-252,-466,0,1
107.6383,-16208,348,-3608,-1008,-213,-849,0,1
107.7379,-16324,360,-3576,-1024,-256,-483,0,1
107.7711,-16208,344,-3060,-992,-248,-497,0,1
107.8209,-16236,324,-3376,-1024,-350,-423,0,1
107.8375,-16268,580,-2976,-992,-492,-1780,0,1
107.8873,-16152,816,-2404,-1008,-335,-531,0,1
107.9371,-16492,416,-3200,-1024,-108,132,0,1
108.1193,-16244,492,-3040,-1024,-120,-906,0,1
108.1691,-16344,704,-2544,-992,-243,-559,0,1
108.2189,-16392,548,-2880,-992,-276,-415,0,1
108.252,-16272,684,-2572,-992,-217,-507,0,1
108.2853,-16552,508,-2680,-976,-137,-636,0,1
108.4347,-16352,700,-2868,-1024,-465,-1066,0,1
108.4679,-16344,1152,-1792,-992,-335,-848,0,1
108.5177,-16540,908,-2300,-992,-206,-311,0,1
108.5675,-16268,704,-2184,-992,-220,-695,0,1
108.6173,-16488,756,-2256,-1040,-207,-45,0,1
108.6671,-16476,1108,-1508,-1024,-178,-745,0,1
108.7833,-16444,856,-2056,-1008,-128,889,0,1
108.8331,-16288,740,-2376,-1040,-179,-331,0,1
108.8829,-16236,932,-1940,-992,-353,-561,0,1
108.9161,-16532,716,-2140,-992,-150,-186,0,1
108.9659,-16372,1020,-1884,-992,-292,-565,0,1
109.0157,-16568,772,-1752,-992,-181,20,0,1
109.0987,-16504,916,-1924,-1008,-257,77,0,1
109.1485,-16496,1024,-2032,-1008,-444,261,0,1
109.1983,-16300,1196,-1244,-1024,-346,-900,0,1
109.2476,-16520,828,-2056,-1024,-95,315,0,1
109.2974,-16408,924,-1760,-1024,-270,-185,0,1
109.3306,-16452,1116,-1748,-1008,-311,-121,1,1
109.4134,-16536,688,-1952,-1008,-567,-135,1,1
109.4633,-16388,1176,-1072,-992,-270,219,1,1
109.5462,-16620,996,-1700,-1040,-65,256,1,1
109.596,-16420,1028,-1476,-992,-228,-617,1,1
109.6458,-16372,1212,-1108,-1008,-233,-12,1,1
109.7287,-16284,1428,-1036,-1040,-388,-1234,1,1
109.7785,-16428,1284,-816,-1008,-180,98,1,1
109.8283,-16468,1332,-1276,-1024,-204,434,1,1
109.8614,-16312,1328,-1064,-1024,-83,-35,1,1
109.9112,-16304,1224,-1328,-1008,-211,-286,1,1
109.961,-16448,1424,-932,-1024,-109,-128,1,1
110.0605,-16544,1260,-1352,-992,-203,-126,1,1
110.0937,-16468,1216,-1128,-992,-257,-366,1,1
110.1268,-16448,1576,-672,-976,-161,-180,1,1
110.1766,-16184,1372,-1536,-1008,-167,66,1,1
110.2761,-16560,1272,-1020,-1008,-351,-442,1,1
110.3259,-16416,1564,-412,-1008,-145,64,1,1
110.3757,-16460,1548,-1220,-1040,-102,305,1,1
110.4088,-16308,1740,-536,-1024,-92,936,1,1
110.4586,-16704,1300,-1420,-976,-139,-115,1,1
110.5083,-16556,1400,-536,-1008,-59,289,1,1
110.6913,-16400,1420,-1192,-960,-18,558,1,1
110.7411,-16528,1696,-1028,-1008,-16,394,1,1
110.7909,-16516,1576,-960,-1024,-71,81,1,1
110.8407,-16384,1444,-984,-1008,-56,97,1,1
110.8739,-16584,1496,-1100,-1024,-161,101,1,1
110.9236,-16400,1484,-776,-992,-166,-2,1,1
111.0067,-16460,1452,-716,-1008,-104,241,1,1
111.0565,-16392,1368,-1112,-976,-155,202,1,1
111.1063,-16652,1596,-1116,-960,-133,-33,1,1
111.1561,-16456,1544,-1004,-1024,13,427,1,1
111.206,-16480,1580,-812,-992,-14,86,1,1
111.289,-16400,1528,-1264,-1008,-38,319,1,1
111.372,-16472,1496,-1052,-1008,-116,-54,1,1
111.4218,-16472,1452,-924,-976,110,622,1,1
111.4716,-16560,1372,-1704,-992,-140,155,1,1
111.5214,-16348,1708,-388,-1008,-30,401,1,1
111.5546,-16424,1392,-1244,-1024,-57,181,1,1
111.6537,-16432,1452,-864,-976,-91,-36,1,1
111.6703,-16548,1388,-1020,-1040,-147,289,1,1
111.7367,-16432,1428,-1012,-992,-93,103,1,1
111.7698,-16324,1544,-1152,-960,-84,136,1,1
111.8528,-16320,1572,-896,-1024,-23,228,1,1
111.9191,-16356,1392,-1068,-992,61,435,1,1
111.9521,-16564,1556,-932,-1024,-59,177,1,1
111.9855,-16556,1428,-1124,-992,-133,375,1,1
112.0353,-16484,1576,-1184,-992,-76,427,1,1
112.1016,-16408,1536,-1148,-992,-90,43,1,1
112.1348,-16440,1444,-884,-992,-55,165,1,1
112.2343,-16512,1596,-1160,-960,-138,16,1,1
112.2675,-16408,1480,-1216,-1008,-215,16,1,1
112.3173,-16632,1320,-1256,-1008,14,183,1,1
112.3508,-16356,1404,-1272,-1008,-108,184,1,1
112.4172,-16400,1556,-740,-992,-130,-189,1,1
112.4504,-16468,1456,-1056,-992,-28,338,1,1
112.55,-16564,1552,-1276,-992,-89,299,1,1
112.5666,-16460,1452,-996,-1008,-68,90,1,1
112.633,-16488,1556,-1216,-992,-7,316,1,1
112.6496,-16504,1284,-1296,-1024,-108,132,1,1
112.7326,-16596,1416,-1044,-992,-20,663,1,1
112.7658,-16448,1348,-1192,-1008,10,230,1,1
112.8156,-16432,1420,-1128,-1008,-37,-217,1,1
112.8986,-16456,1500,-1096,-1008,-64,533,1,1
112.9318,-16416,1516,-1200,-1008,-161,-59,1,1
112.9982,-16472,1632,-860,-992,-136,-211,1,1
113.048,-16516,1456,-1308,-992,-198,37,1,1
113.0812,-16468,1532,-1056,-992,-6,47,1,1
113.1144,-16560,1404,-1180,-976,-79,178,1,1
113.214,-16476,1348,-1104,-992,-65,515,1,1
113.2638,-16372,1516,-1280,-992,-181,6,1,1
113.297,-16432,1656,-940,-1056,-107,-80,1,1
113.3447,-16568,1436,-1064,-1008,0,328,1,1
113.3965,-16320,1676,-1152,-1008,-107,38,1,1
113.4463,-16524,1496,-804,-1024,40,271,1,1
113.4961,-16448,1516,-1408,-992,-50,131,1,1
113.5791,-16428,1492,-1076,-1008,-124,88,1,1
113.6289,-16456,1532,-1160,-992,-4,244,1,1
113.6787,-16568,1460,-1012,-1024,-25,217,1,1
113.7119,-16436,1444,-1188,-976,2,382,1,1
113.7617,-16516,1536,-1032,-1040,-151,104,1,1
113.8115,-16516,1508,-1260,-1024,-35,356,1,1
113.8945,-16360,1536,-1064,-1008,-26,172,1,1
113.9443,-16480,1644,-1060,-992,-37,278,1,1
114.0273,-16456,1432,-1296,-992,-112,307,1,1
114.0771,-16400,1512,-1144,-992,-97,-96,1,1
114.1103,-16476,1596,-1440,-992,-85,258,1,1
114.1435,-16572,1444,-1176,-1008,-107,70,1,1
114.2099,-16412,1528,-1060,-992,-39,525,1,1
114.2928,-16564,1488,-1128,-1024,7,149,1,1
114.3426,-16400,1636,-860,-992,43,397,1,1
114.4256,-16424,1608,-1240,-992,-57,553,1,1
114.4754,-16412,1360,-1408,-1008,-1,411,1,1
114.5247,-16448,1452,-1460,-992,-65,160,1,1
114.5745,-16404,1428,-1272,-1024,-64,249,1,1
114.6243,-16496,1356,-1348,-1008,-187,86,1,1
114.6409,-16348,1652,-1152,-1008,13,438,1,1
114.7072,-16416,1420,-1292,-1008,-99,-42,1,1
114.7902,-16468,1544,-1228,-992,-30,363,1,1
114.8399,-16352,1544,-1280,-992,-129,6,1,1
114.8731,-16352,1464,-1164,-1008,-4,229,1,1
114.9229,-16440,1616,-1456,-992,-154,1,1,1
114.9726,-16416,1672,-1100,-1008,-100,91,1,1
115.0224,-16400,1556,-1196,-1024,-55,237,1,1
115.1053,-16504,1328,-1200,-992,-116,-110,1,1
115.1551,-16444,1452,-1132,-992,4,503,1,1
115.2381,-16624,1548,-1464,-1024,-85,-167,1,1
115.2878,-16520,1536,-1300,-992,-120,-54,1,1
115.3376,-16560,1444,-1508,-992,16,583,1,1
115.3708,-16360,1512,-1352,-992,-187,-271,1,1
115.4703,-16528,1568,-1112,-1024,-25,316,1,1
115.5035,-16376,1436,-1328,-992,-95,357,1,1
115.5533,-16496,1516,-1388,-1024,-80,22,1,1
115.603,-16360,1532,-996,-1008,-2,369,1,1
115.6528,-16396,1584,-1172,-992,-74,214,1,1
115.686,-16384,1460,-1440,-1008,-80,103,1,1
115.7357,-16472,1444,-1388,-992,-110,114,1,1
115.8353,-16468,1516,-1348,-1024,-90,267,1,1
115.9182,-16504,1536,-1264,-992,-91,55,1,1
115.9514,-16328,1524,-1108,-992,-105,198,1,1
116.0015,-16536,1464,-1336,-1056,-52,342,1,1
116.0514,-16356,1524,-1140,-992,-75,174,1,1
116.1012,-16516,1548,-1456,-976,-2,246,1,1
116.1842,-16352,1464,-1524,-992,-65,144,1,1
116.234,-16540,1436,-1252,-976,-136,99,1,1
116.2672,-16428,1576,-1228,-1024,-49,242,1,1
116.3336,-16504,1384,-1460,-1024,-80,60,1,1
116.3668,-16440,1544,-1308,-992,-56,177,1,1
116.4166,-16428,1412,-1324,-1024,-41,202,1,1
116.4665,-16440,1532,-1444,-992,-59,204,1,1
116.5495,-16612,1496,-1484,-992,-127,182,1,1
116.5827,-16480,1480,-1172,-1008,-146,83,1,1
116.6491,-16372,1504,-1336,-976,-2,420,1,1
116.6823,-16440,1532,-1508,-1008,-144,59,1,1
116.7321,-16408,1488,-1404,-992,-22,318,1,1
116.7819,-16496,1476,-1256,-1024,-95,67,1,1
116.9148,-16408,1404,-1408,-1024,-42,80,1,1
116.948,-16472,1404,-1336,-1024,-91,97,1,1
116.9978,-16408,1520,-1640,-976,-143,277,1,1
117.0476,-16448,1520,-1192,-992,-117,58,1,1
117.0808,-16456,1452,-1400,-992,-16,397,1,1
117.2302,-16376,1620,-1356,-1024,-111,-201,1,1
117.2635,-16456,1444,-1388,-992,-50,233,1,1
117.3133,-16480,1352,-1304,-976,9,204,1,1
117.3631,-16592,1380,-1500,-992,-131,-79,1,1
117.4129,-16396,1520,-1152,-1008,-167,57,1,1
117.4461,-16472,1468,-1588,-976,-94,65,1,1
117.5286,-16364,1420,-1148,-976,-111,218,1,1
117.5784,-16480,1448,-1296,-1008,-13,239,1,1
117.678,-16452,1360,-1388,-1008,-87,138,1,1
117.7112,-16428,1352,-1264,-992,-54,159,1,1
117.7609,-16440,1460,-1444,-992,-34,247,1,1
117.8107,-16268,1448,-1284,-1024,-14,153,1,0
117.8605,-16352,1564,-1284,-1024,49,158,1,0
117.8937,-16516,1464,-1212,-976,-119,126,1,0
117.9767,-16544,1592,-1296,-992,-32,172,1,0
118.0265,-16368,1400,-1424,-976,-28,158,1,0
118.0763,-16588,1480,-1444,-1024,-62,104,1,0
118.1261,-16440,1540,-1380,-1008,-1,388,1,0
118.1592,-16524,1360,-1428,-1008,-37,104,1,0
118.2256,-16468,1472,-1424,-992,-39,276,1,0
118.2588,-16376,1432,-1496,-1008,-73,50,1,0
118.3583,-16376,1600,-1444,-1024,-93,258,1,0
118.3916,-16480,1296,-1672,-1008,-116,49,1,0
118.4912,-16384,1436,-1212,-1040,-61,119,1,0
118.5243,-16472,1400,-1564,-1008,-8,354,1,0
118.5741,-16364,1416,-1264,-1024,-14,38,1,0
118.6239,-16484,1428,-1404,-1024,85,579,1,0
118.6737,-16500,1356,-1604,-992,-87,-59,1,0
118.7567,-16440,1492,-992,-1024,37,305,1,0
118.8065,-16468,1556,-1548,-1008,138,388,1,0
118.8397,-16392,1452,-1548,-1040,82,482,1,0
118.8729,-16376,1504,-1816,-976,161,647,1,0
118.9392,-16408,1364,-1516,-992,258,483,1,0
118.989,-16512,1252,-2176,-1024,-14,374,1,0
119.0715,-16344,1160,-1840,-1040,-59,17,1,0
119.1047,-16344,1284,-1620,-1008,-16,249,1,0
119.1544,-16592,1344,-1840,-992,46,155,1,0
119.1876,-16368,1264,-1532,-976,58,483,1,0
119.2373,-16560,1264,-1584,-992,145,329,1,0
119.3037,-16384,1192,-2040,-992,125,540,1,0
119.3866,-16444,1272,-1876,-1024,146,380,1,0
119.4364,-16384,1204,-2064,-1024,178,529,1,0
119.4695,-16364,1136,-2068,-1008,205,486,1,0
119.5193,-16440,1260,-1996,-992,71,279,1,0
119.5691,-16280,1168,-1864,-1008,159,528,1,0
119.652,-16440,1164,-2196,-976,127,210,1,0
119.7515,-16208,1136,-1760,-1040,169,745,1,0
119.8344,-16340,1104,-2328,-992,158,290,1,0
119.8842,-16464,1108,-2036,-1024,223,530,1,0
119.934,-16296,976,-2304,-992,335,1060,1,0
119.9671,-16400,984,-2216,-1024,368,118,1,0
120.0666,-16556,952,-2516,-976,353,553,1,0
120.1496,-16420,948,-2548,-1008,256,374,1,0
120.1993,-16308,884,-2200,-976,235,602,1,0
120.2491,-16356,956,-2412,-992,386,672,1,0
120.2657,-16416,800,-2832,-992,229,669,1,0
120.3317,-16368,832,-2380,-992,252,851,1,0
120.3821,-16524,528,-2632,-1024,480,1133,1,0
120.4984,-16268,756,-2756,-1008,267,875,1,0
120.5482,-16548,188,-2960,-992,393,1188,1,0
120.598,-16268,492,-2952,-1008,275,963,1,0
120.6477,-16296,556,-3172,-1024,264,1130,1,0
120.6975,-16284,328,-3408,-976,156,1017,1,0
120.7307,-16240,248,-3332,-1008,20,720,1,0
120.7805,-16224,348,-3196,-992,283,1243,1,0
120.8635,-16172,304,-3864,-992,290,1136,1,0
120.9133,-16144,224,-3840,-992,159,528,1,0
120.9631,-15968,300,-3776,-1008,156,1106,1,0
121.0129,-16140,12,-3952,-992,68,570,1,0
121.0461,-16152,56,-3928,-976,125,551,0,0
121.0959,-16164,228,-4468,-1024,173,343,0,0
121.1457,-16072,60,-4056,-1008,124,785,0,0
121.2287,-16040,-48,-4196,-992,91,539,0,0
121.2785,-16132,32,-4384,-992,-5,440,0,0
121.2951,-15996,108,-4164,-976,63,509,0,0
121.3615,-16060,12,-4528,-1024,36,643,0,0
121.4108,-16108,-192,-4512,-1008,215,883,0,0
121.4606,-15904,-208,-4660,-992,-98,98,0,0
121.4938,-15976,-172,-4396,-1024,-2,341,0,0
121.5436,-15932,-312,-4528,-992,25,478,0,0
121.6266,-15984,-188,-4600,-1008,-70,322,0,0
121.6764,-15984,-156,-4552,-1008,-49,443,0,0
121.7262,-15884,-268,-4628,-992,50,456,0,0
121.7594,-16088,-192,-4528,-1024,34,430,0,0
121.8092,-15656,-136,-4484,-976,250,1154,0,0
121.859,-15924,-452,-4984,-992,331,680,0,0
121.9088,-15820,44,-4676,-992,161,189,0,0
122.0411,-15908,-248,-4900,-992,227,857,0,0
122.0909,-15828,-424,-5220,-1008,54,639,0,0
122.1241,-15752,-276,-4784,-976,25,150,0,0
122.1739,-15904,-252,-4932,-992,97,337,0,0
122.2236,-16020,-376,-4384,-1008,541,300,0,0
122.2568,-15752,-172,-5616,-992,310,679,0,0
122.3564,-15748,-152,-5088,-1008,-73,302,0,0
122.4062,-15880,-284,-5052,-1008,-61,-69,0,0
122.4891,-15940,-228,-4828,-1008,-33,162,0,0
122.5389,-15772,-12,-5080,-1040,19,361,0,0
122.5721,-15876,-116,-4996,-960,2,-54,0,0
122.6218,-15848,-280,-4684,-992,146,176,0,0
122.6716,-15880,-196,-5356,-976,-81,174,0,0
122.7546,-15856,-112,-5060,-976,-15,89,0,0
122.8044,-15724,-176,-4988,-992,46,272,0,0
122.8541,-15744,-244,-5164,-960,25,169,0,0
122.9371,-15896,-168,-5032,-992,-41,201,0,0
122.9869,-15884,-68,-5240,-1008,-83,120,0,0
123.0367,-15700,-28,-5116,-992,-19,299,0,0
123.0698,-15796,-212,-5056,-1024,-3,303,0,0
123.1196,-15748,-240,-5228,-976,-143,136,0,0
123.1694,-15864,-136,-5080,-976,44,453,0,0
123.2192,-15756,-48,-5328,-992,-32,201,0,0
123.3021,-15756,-184,-5236,-992,-72,113,0,0
123.3353,-15820,-164,-5240,-992,-15,140,0,0
123.3851,-15780,-200,-5132,-992,-66,217,0,0
123.4349,-15760,0,-5116,-992,53,369,0,0
123.4846,-15676,-208,-5284,-1008,-53,184,0,0
123.5178,-15756,-124,-5068,-992,-70,267,0,0
123.5676,-15808,-212,-5284,-992,-71,117,0,0
123.6506,-15876,-104,-5144,-992,-76,191,0,0
123.7003,-15844,-176,-5096,-992,-38,201,0,0
123.7501,-15792,-228,-5224,-960,-77,199,0,0
123.7999,-15824,-156,-5132,-992,25,214,0,0
123.8331,-15856,-240,-4992,-992,-74,188,0,0
123.8829,-15800,-204,-5208,-976,-71,143,0,0
123.9658,-15864,-40,-5024,-1024,-44,187,0,0
124.0156,-15900,-236,-5292,-992,-42,109,0,0
124.0654,-15892,-156,-5228,-1024,-78,291,0,0
124.1152,-15836,-176,-5376,-992,-64,86,0,0
124.1483,-15656,-68,-5424,-992,23,146,0,0
124.1981,-16008,-220,-5048,-992,-17,131,0,0
124.2474,-15732,-172,-5084,-976,9,338,0,0
124.2972,-15768,-208,-5124,-992,-76,77,0,0
124.3802,-15844,-180,-5156,-992,-36,183,0,0
124.4299,-15852,-172,-5172,-960,-64,232,0,0
124.4631,-15684,-204,-5000,-1008,-78,340,0,0
124.5129,-15772,-140,-5064,-992,2,331,0,0
124.5626,-15844,-332,-5308,-976,-100,159,0,0
124.6456,-15680,-148,-5152,-992,12,198,0,0
124.7451,-15792,-248,-5304,-992,-23,199,0,0
124.7783,-15604,-208,-4996,-992,0,167,0,0
124.8281,-15884,-184,-5436,-976,-9,220,0,0
124.8778,-15728,-160,-5128,-976,-26,115,0,0
124.9276,-15792,-172,-5392,-976,-93,158,0,0
124.9608,-15808,-208,-5216,-1008,-88,-58,0,0
125.0105,-15820,-80,-5160,-1008,-161,3,0,0
125.0935,-15940,-152,-5212,-992,-142,72,0,0
125.1432,-15752,-180,-5032,-1008,-84,68,0,0
125.193,-15728,-284,-5040,-960,-58,170,0,0
125.2096,-15816,-232,-5300,-1008,-68,195,0,0
125.2759,-15764,-152,-5136,-1024,-136,17,0,0
125.3759,-15740,-8,-5208,-992,-125,-23,0,0
125.4091,-15808,-144,-5008,-976,-103,315,0,0
125.4588,-15772,-184,-5120,-1024,-85,204,0,0
125.5086,-15760,-140,-5196,-960,-44,229,0,0
125.5916,-15740,-68,-5156,-992,-27,262,0,0
125.6746,-15852,-188,-5028,-976,-34,221,0,0
125.7244,-15740,-264,-5224,-960,-127,146,0,0
125.7742,-15776,-256,-5296,-992,-112,100,0,0
125.8239,-15872,-252,-4728,-976,-136,92,0,0
125.8571,-15768,-192,-5292,-976,-25,348,0,0
125.9069,-15864,-100,-5160,-976,-92,33,0,0
126.0065,-15816,-104,-5152,-1008,-62,177,0,0
126.0397,-15808,-136,-5188,-1024,-68,171,0,0
126.1393,-15788,-92,-5000,-992,-97,153,0,0
126.1724,-15780,-100,-5164,-976,-32,259,0,0
126.2222,-15796,-156,-5180,-1008,-49,151,0,0
126.272,-15792,-108,-5256,-992,-153,172,0,0
126.3052,-15804,-164,-5064,-1024,-84,93,0,0
126.355,-15832,-160,-4980,-1008,-104,171,0,0
126.4546,-15868,-196,-5200,-1008,-10,216,0,0
126.4878,-15804,-160,-4972,-976,-96,165,0,0
126.5375,-15808,-156,-5180,-976,-56,124,0,0
126.5707,-15752,-140,-5240,-976,-121,30,0,0
126.6205,-15728,-168,-5156,-1024,-85,75,0,0
126.6869,-15844,-120,-4988,-976,-91,67,0,0
126.7201,-15760,-96,-5140,-1008,-9,330,0,0
126.8031,-15856,-264,-5196,-976,-98,168,0,0
126.8529,-15736,-148,-5436,-976,-34,182,0,0
126.9026,-15864,-92,-5228,-960,-97,71,0,0
126.9358,-15720,-96,-5040,-992,-75,97,0,0
126.9856,-15800,-180,-5300,-992,-151,135,0,0
127.0354,-15804,-128,-5048,-1008,-58,91,0,0
127.0852,-15864,-132,-5160,-992,-75,225,0,0
127.1682,-15788,-76,-5168,-976,-88,154,0,1
127.218,-15772,-156,-5048,-1008,-109,207,0,1
127.2677,-15864,-112,-5200,-1008,-98,144,0,1
127.3009,-15612,-188,-4856,-992,-78,192,0,1
127.3507,-15820,-196,-5172,-976,-37,211,0,1
127.4005,-15864,-144,-5284,-992,-82,170,0,1
127.4835,-15768,-100,-5260,-1008,-85,241,0,1
127.5665,-15776,-180,-5184,-992,-100,235,0,1
127.6163,-15764,16,-5200,-1008,-85,177,0,1
127.666,-15808,-260,-5280,-992,-66,192,0,1
127.7158,-15724,-72,-5196,-1008,-85,193,0,1
127.7988,-15840,-268,-5376,-992,-35,186,0,1
127.8486,-15848,-156,-5132,-1024,-151,33,0,1
127.9316,-15900,-100,-5112,-992,-53,261,0,1
127.9814,-15724,-172,-5424,-1008,-82,197,0,1
128.0311,-15836,-128,-5276,-944,-126,83,0,1
128.0643,-15784,-80,-5092,-960,-74,209,0,1
128.1471,-15848,-116,-5248,-1024,-117,183,0,1
128.1971,-15836,-76,-5184,-1024,-96,165,0,1
128.2967,-15740,-136,-5040,-960,-60,195,0,1
128.3465,-15840,-56,-5124,-976,-114,76,0,1
128.3797,-15712,-168,-5140,-976,-72,228,0,1
128.4294,-15808,-136,-5180,-992,-32,177,0,1
128.4792,-15844,-200,-5256,-1008,-34,141,0,1
128.529,-15684,-188,-5200,-992,-125,99,0,1
128.612,-15772,-108,-5296,-992,-236,-12,0,1
128.695,-15788,-168,-5272,-1040,-331,-99,0,1
128.7448,-15668,-72,-5016,-1024,-342,-140,0,1
128.7945,-15752,-84,-5028,-976,-321,-72,0,1
128.8277,-15756,44,-4940,-976,-520,-384,0,1
128.8775,-15960,64,-4988,-992,-433,-120,0,1
128.9273,-15688,-236,-4956,-1008,-419,62,0,1
129.0103,-15928,360,-4864,-1008,-435,-133,0,1
129.0601,-15944,84,-4944,-976,-409,138,0,1
129.0933,-15824,76,-5004,-1024,-382,177,0,1
129.143,-15908,80,-5136,-976,-445,121,0,1
129.1928,-15868,136,-5080,-960,-475,-140,0,1
129.2426,-15936,104,-5208,-992,-627,-860,0,1
129.3256,-15868,460,-4320,-992,-441,-417,0,1
129.3754,-15972,212,-4908,-1008,-573,-373,0,1
129.4252,-15936,492,-4560,-976,-637,-799,0,1
129.4584,-16084,464,-4384,-1008,-581,-388,0,1
129.5579,-16040,420,-4240,-1008,-427,-172,0,1
129.6077,-16068,488,-4408,-960,-522,-273,0,1
129.6907,-15908,608,-4464,-992,-370,-50,0,1
129.7238,-16044,556,-4188,-960,-502,-606,0,1
129.7737,-16116,540,-4512,-976,-654,-479,0,1
129.8235,-16204,516,-4108,-992,-608,-479,0,1
129.8732,-16024,712,-3884,-976,-483,-496,0,1
129.9064,-16124,680,-3936,-992,-443,-419,0,1
130.006,-16132,772,-4048,-1024,-545,-532,0,1
130.0558,-16032,976,-3816,-992,-305,-296,0,1
130.089,-16196,752,-3816,-992,-364,-352,0,1
130.1388,-16084,1092,-3628,-992,-608,-1152,0,1
130.1886,-16240,1032,-3500,-992,-720,-325,0,1
130.2715,-16256,996,-3412,-992,-1272,-1678,0,1
130.3047,-16236,1504,-2836,-1008,-290,207,0,1
130.3711,-16208,1112,-3456,-1008,-376,-567,0,1
130.4043,-16076,1200,-2796,-1008,-251,-73,0,1
130.4541,-16284,1216,-3128,-992,-103,12,0,1
130.5039,-16268,1012,-2944,-976,-108,-145,0,1
130.5703,-16392,1056,-3244,-992,-19,101,0,1
130.6366,-16212,1148,-3088,-960,-220,23,0,1
130.6698,-16452,1148,-3160,-992,-387,-10,0,1
130.7196,-16220,1396,-2808,-992,-183,-324,0,1
130.7694,-16180,1004,-3068,-992,-86,178,0,1
130.8192,-16360,1168,-2840,-976,-152,-212,0,1
130.9022,-16164,1208,-2696,-976,-72,125,1,1
130.9353,-16284,1128,-3128,-992,-63,469,1,1
131.0349,-16284,1244,-2792,-1008,-203,47,1,1
131.0847,-16408,1076,-2968,-1008,-61,471,1,1
131.1345,-16392,1104,-3076,-992,-351,-164,1,1
131.2175,-16308,1088,-2824,-960,-240,131,1,1
131.3004,-16144,1156,-3144,-1040,-390,-155,1,1
131.3502,-16172,1644,-2276,-976,-145,-359,1,1
131.4,-16364,1316,-3276,-976,-184,321,1,1
131.4498,-16300,1296,-2720,-992,-222,-257,1,1
131.5328,-16220,1180,-2436,-1008,-193,80,1,1
131.5826,-16316,1252,-2760,-976,-187,-78,1,1
131.6324,-16436,1168,-2744,-960,-75,313,1,1
131.6655,-16392,1252,-3012,-976,-267,108,1,1
131.7485,-16324,1368,-2908,-1008,-373,-54,1,1
131.7983,-16324,1304,-2508,-960,-166,166,1,1
131.8481,-16336,1252,-2836,-976,-110,22,1,1
131.8813,-16364,1192,-2716,-1008,-292,53,1,1
131.9311,-16300,1292,-2640,-992,-210,-166,1,1
131.9809,-16192,1348,-2848,-1008,-134,154,1,1
132.0634,-16528,1520,-2484,-992,-255,-549,1,1
132.1629,-16196,1344,-3036,-960,38,-53,1,1
132.2127,-16352,1156,-2676,-960,-99,-301,1,1
132.2625,-16300,1116,-2576,-1008,-44,274,1,1
132.3092,-16412,1268,-2652,-976,-244,-204,1,1
132.3786,-16416,1248,-2592,-976,-198,-123,1,1
132.4284,-16324,1180,-2568,-992,-222,-131,1,1
132.4782,-16340,1176,-2376,-1008,-264,-281,1,1
132.528,-16344,1176,-2964,-944,-241,-320,1,1
132.5778,-16584,1216,-2880,-1008,-192,32,1,1
132.6109,-16372,1224,-2548,-992,-217,-145,1,1
132.7105,-16284,1492,-2612,-976,-115,135,1,1
132.7437,-15916,1660,-2632,-992,-144,160,1,1
132.7935,-16364,1152,-2396,-992,-179,-499,1,1
132.8432,-16564,1204,-2424,-1008,-303,-754,1,1
132.8764,-16176,1576,-2336,-976,-125,-503,1,1
132.9428,-16716,1656,-1588,-976,43,-83,1,1
133.0258,-16144,1468,-2516,-1024,22,461,1,1
133.0423,-16500,1608,-2172,-960,-63,116,1,1
133.1087,-16448,1380,-2360,-1008,-83,154,1,1
133.1585,-16488,1428,-2180,-976,-76,306,1,1
133.1917,-16216,1292,-2540,-976,-132,484,1,1
133.2415,-16384,1468,-2320,-976,-151,66,1,1
133.341,-16468,1388,-2184,-992,-112,424,1,1
133.424,-16456,1292,-2712,-960,-236,200,1,1
133.4738,-16372,1336,-2240,-960,-230,45,1,1
133.5236,-16232,1524,-2436,-976,-315,-250,1,1
133.5567,-16356,1356,-2520,-960,-83,161,1,1
133.6065,-16180,1624,-2000,-992,-37,49,1,1
133.6563,-16512,1404,-2372,-1008,38,424,1,1
133.7393,-16228,1492,-2280,-992,-66,-238,1,1
133.7891,-16380,1400,-1952,-992,43,468,1,1
133.8054,-16408,1468,-2712,-992,-39,214,1,1
133.872,-16224,1476,-2108,-992,-77,349,1,1
133.9548,-16324,1508,-2512,-976,-162,64,1,1
134.0048,-16300,1428,-1984,-992,10,166,1,1
134.0546,-16236,1500,-2360,-992,-22,323,1,1
134.1375,-16456,1460,-2256,-960,-150,-117,1,1
134.1873,-16248,1464,-2268,-976,-50,436,1,1
134.2371,-16276,1304,-2616,-992,-151,112,1,1
134.2868,-16452,1436,-2312,-992,29,292,1,1
134.3698,-16380,1296,-2568,-976,-68,297,1,1
134.4196,-16436,1296,-2248,-992,59,400,1,1
134.4528,-16452,1276,-2636,-944,3,205,1,1
134.5026,-16408,1328,-2452,-1024,-181,89,1,1
134.5524,-16404,1424,-2016,-992,-91,140,1,1
134.5855,-16404,1344,-2352,-992,125,436,1,1
134.6851,-16216,1456,-2092,-992,-229,-219,1,1
134.7681,-16320,1556,-2316,-976,-109,123,1,1
134.8178,-16332,1412,-2648,-976,-157,97,1,1
134.8676,-16260,1524,-2272,-960,-133,-99,1,1
134.9174,-16320,1468,-2228,-1008,-73,260,1,1
134.9506,-16404,1456,-2484,-976,-1,122,1,1
135.0004,-16348,1492,-2336,-992,-33,315,1,1
135.0833,-16364,1552,-2496,-976,22,141,1,1
135.1331,-16336,1272,-2856,-976,-98,163,1,1
135.1829,-16444,1464,-2236,-976,-92,197,1,1
135.2161,-16316,1384,-2532,-1008,-80,163,1,1
135.2659,-16524,1408,-2336,-960,-184,277,1,1
135.3156,-16276,1308,-2124,-992,-22,190,1,1
135.3986,-16348,1444,-2704,-976,-25,263,1,1
135.4484,-16372,1272,-2480,-928,-251,-123,1,1
135.4816,-16356,1492,-2324,-976,-77,146,1,1
135.5314,-16392,1560,-2384,-976,-98,253,1,1
135.5811,-16356,1500,-2444,-944,-99,63,1,1
135.6309,-16420,1460,-2472,-960,-103,183,1,1
135.6807,-16360,1424,-2252,-992,-100,170,1,1
135.7641,-16352,1360,-2656,-992,-226,-68,1,1
135.8138,-16368,1504,-1964,-976,-281,-124,1,1
135.847,-16304,1388,-2372,-960,-65,244,1,1
135.8968,-16324,1432,-2064,-976,-32,159,1,1
135.9466,-16420,1284,-2472,-1008,-85,182,1,1
135.9964,-16248,1372,-2468,-992,-14,98,1,1
136.0794,-16320,1308,-2336,-976,-207,166,1,1
136.1126,-16404,1448,-2392,-960,-188,164,1,1
136.1624,-16256,1480,-2136,-1008,-58,272,1,1
