Time,Ax,Ay,Az,Gx,Gy,Gz
0.01658091,0,0,0,0,0,0
0.01658091,-15948,-1532,-4236,-3232,-76,42
0.08289278,-15968,-1684,-4280,-3232,-84,486
0.08289278,-15860,-1556,-4376,-3232,-121,16
0.08289278,-15956,-1656,-4292,-3216,-68,-8
0.08289278,-15960,-1580,-4252,-3248,-144,420
0.08289278,-15896,-1604,-4392,-3216,-70,192
0.04973698,-15828,-1692,-4308,-3248,-61,-88
0.04973698,-16008,-1532,-4316,-3216,-94,311
0.01658,-15924,-1500,-4496,-3264,-76,294
0.01658235,-16048,-1536,-4396,-3232,-89,-141
0.01657754,-15944,-1584,-4184,-3216,-105,287
0.01657615,-15944,-1500,-4460,-3232,-111,285
0.01657615,-15868,-1584,-4344,-3232,-106,-163
0.01657855,-15892,-1632,-4156,-3216,-104,310
0.01657855,-15968,-1444,-4484,-3216,-99,293
0.01657523,-16028,-1568,-4332,-3232,-101,-7
0.01657655,-15912,-1588,-4156,-3184,-103,48
0.01657718,-15848,-1628,-4116,-3232,-92,310
0.01657718,-15848,-1520,-4420,-3200,-54,485
0.01657888,-16024,-1620,-4544,-3216,-103,127
0.01657871,-16032,-1472,-4412,-3216,-103,-269
0.01657829,-15988,-1540,-4184,-3216,-106,-49
0.01657457,-15904,-1548,-4288,-3216,-116,321
0.01657457,-15864,-1572,-4280,-3232,-89,387
0.01658082,-16024,-1564,-4552,-3216,-94,14
0.01658082,-15896,-1660,-4272,-3232,-109,121
0.01657883,-15864,-1520,-4348,-3184,-78,115
0.01657826,-15884,-1588,-4216,-3216,-97,44
0.01657538,-15900,-1560,-4332,-3200,-129,307
0.01657538,-15880,-1540,-4412,-3200,-71,375
0.01657761,-16016,-1616,-4364,-3200,-54,70
0.01658018,-15900,-1548,-4244,-3232,-57,-28
0.01658018,-15956,-1496,-4332,-3184,-67,230
0.01657775,-15940,-1628,-4428,-3200,-112,331
0.01657775,-15852,-1416,-4388,-3200,-109,224
0.01657835,-15988,-1628,-4228,-3232,-74,-66
0.01657835,-15980,-1644,-4272,-3264,-109,49
0.01657846,-15904,-1528,-4268,-3216,-90,476
0.01657864,-15852,-1564,-4532,-3168,-52,220
0.01657864,-16020,-1604,-4488,-3216,-97,-210
0.0165789,-15912,-1592,-4240,-3216,-109,58
0.0165789,-16004,-1552,-4288,-3184,-117,495
0.01658063,-16000,-1500,-4428,-3216,-66,262
0.01657845,-15952,-1560,-4344,-3200,-111,-138
0.01657845,-15944,-1580,-4188,-3216,-92,77
0.01657678,-15964,-1620,-4296,-3200,-83,428
0.01657678,-15896,-1520,-4552,-3184,-142,250
0.01658029,-15948,-1560,-4204,-3200,-95,-91
0.01658029,-15908,-1656,-4304,-3184,-96,-77
0.01658062,-15984,-1592,-4228,-3168,-138,173
0.01657837,-15932,-1444,-4200,-3216,-62,364
0.01657837,-15764,-1624,-4380,-3184,-31,316
0.01658932,-15900,-1664,-4292,-3216,-104,-24
0.01658932,-15796,-1560,-4300,-3216,-90,163
0.01657809,-16144,-1348,-4380,-3184,-73,564
0.01657809,-16256,-1372,-4480,-3216,-60,152
0.01657969,-16272,-1376,-4264,-3200,-80,-81
0.01657809,-15932,-1424,-3932,-3232,-16,875
0.01657809,-15820,-1380,-4536,-3200,39,1196
0.0165804,-15712,-1668,-4652,-3216,74,559
0.0165802,-15752,-1768,-4528,-3200,-24,41
0.01658433,-15796,-1552,-4344,-3232,-33,351
0.01657566,-15808,-1408,-4260,-3248,-240,1200
0.01657891,-15676,-1504,-4488,-3200,-284,909
0.01657793,-15568,-1332,-4776,-3184,-370,1737
0.01657793,-15348,-1300,-5372,-3184,-408,1590
0.01657844,-15068,-2748,-5140,-3184,544,-758
0.01657844,-15556,-3840,-4716,-3216,83,-592
0.01657965,-15504,-1652,-4212,-3184,-644,1263
0.0165781,-16112,136,-5292,-3200,204,1858
0.0165781,-16988,-1120,-5776,-3184,353,-373
0.0165821,-16892,-880,-4016,-3200,-76,-3227
0.0165821,-15876,-236,-2652,-3216,323,821
0.01657862,-15700,-1588,-4176,-3232,430,4874
0.01657872,-15436,-2096,-5808,-3184,-136,3046
0.01657896,-15120,-1064,-5848,-3168,-322,-689
0.01611515,-15436,-1056,-4804,-3200,208,-1407
0.01611515,-15856,-1980,-4660,-3216,108,928
0.01657733,-15972,-1392,-5592,-3216,-353,2084
0.01656636,-14656,-1512,-4944,-3200,-354,2867
0.01657233,-16020,-908,-6048,-3200,179,2862
0.01657233,-16408,-1772,-7008,-3216,-685,-1300
0.01657213,-16768,1880,-5444,-3216,-1524,-484
0.01657357,-15104,204,-4496,-3168,-108,-1940
0.01657357,-16352,0,-4824,-3216,1767,-620
0.01657363,-16364,-3356,-5652,-3216,2049,-7773
0.01657363,-14892,1512,-2576,-3200,-1102,-1306
0.01657203,-16544,1832,-8800,-3216,-13527,6143
0.0165748,-16984,1236,-6056,-3200,-25166,-9956
0.0165748,-18132,808,-6252,-3184,-21706,-7780
0.01657329,-21016,540,-2920,-3184,-17494,-28016
0.01657491,-16576,2228,-344,-3216,-32768,-32768
0.01657248,-16380,-972,-6256,-3184,-23905,-32768
0.0165756,-15928,2164,-3368,-3200,-15602,-29973
0.0165733,-8896,-3808,5872,-3184,-16824,-32768
0.01657307,-8244,-6592,4720,-3200,1432,-32768
0.01670863,-8860,-5116,6008,-3184,-11452,-6520
0.01657257,-11648,-15112,10292,-3216,5081,-3945
0.01657528,-10360,-5912,9944,-3216,15278,-9437
0.01657528,-12268,-4572,10848,-3184,-3688,5824
0.01657335,-13176,-8448,7776,-3200,-22462,-9710
0.01657405,-11128,-14672,9220,-3168,-225,-7659
0.01656798,-6872,-12128,10396,-3184,-3949,-2748
0.01657245,-7212,-6732,5896,-3216,-9697,6075
0.01657355,-13956,-10276,8352,-3184,-6985,-4436
0.01657194,-11260,-9864,6668,-3216,-8018,-8050
0.01657365,-8728,-9876,3400,-3184,331,-14343
0.01657368,-3480,-11356,13072,-3200,2580,2971
0.01657368,-13468,-10060,8540,-3232,7528,8241
0.01657329,-14176,-8344,11920,-3200,2112,14136
0.01657329,-13632,-10428,8876,-3184,-3081,18421
0.01657571,-10704,-7024,10236,-3168,-19193,32767
0.01657571,-8152,3708,-2160,-3184,-32768,32767
0.01657501,-18424,-6212,-1432,-3168,-32768,9856
0.01657333,-13616,-10236,-3964,-3200,9898,-2411
0.01657471,-16832,-1332,2200,-3152,12264,-28425
0.01657471,-9816,40,5788,-3152,-1302,-5775
0.01657294,-20268,-5888,-3660,-3184,-8298,4101
0.01657429,-15980,-6480,-1276,-3184,2032,-5373
0.01657429,-20060,-3988,84,-3168,13276,856
0.01657419,-13040,-6244,3960,-3184,6819,6786
0.01657419,-16724,-1836,3140,-3184,-872,17351
0.01657424,-17848,-14788,-212,-3200,-9853,7339
0.01657424,-15800,-6460,-1216,-3168,-4545,-7050
0.01657344,-14300,-6376,448,-3184,-4942,-11858
0.01657334,-14500,-9768,1176,-3184,-3413,-8987
0.01657458,-11488,-11004,1176,-3200,-4249,-15052
0.01657283,-13276,4668,3116,-3184,1217,2529
0.01657283,-16032,-3732,152,-3184,51,8420
0.01657559,-15092,-4488,772,-3168,3906,2507
0.01657421,-14344,-4576,2032,-3200,7860,4101
0.01657421,-17340,-4512,3056,-3184,7230,9153
0.01657239,-17928,-2976,904,-3168,282,1275
0.01657334,-17256,-4084,1364,-3184,2688,3225
0.01657334,-16972,-2784,-856,-3168,2567,491
0.01657346,-14744,-3200,1572,-3200,2508,-3713
0.01657346,-14588,-6704,1036,-3216,-560,2594
0.01657161,-13972,-6684,1124,-3200,-4646,7104
0.01657161,-14068,-6872,-2740,-3184,-3881,6751
0.01657319,-12072,-6440,-2200,-3184,-1691,-4535
0.0165731,-12552,-9364,800,-3184,-4493,-7154
0.0165748,-16964,-10704,1860,-3216,-6963,-4808
0.01657476,-19092,-7956,-3328,-3152,-2627,1409
0.01657308,-15976,-11124,-2680,-3184,-5965,-9626
0.01657308,-8736,-4784,2740,-3200,-1142,11029
0.01657241,-12784,-4136,-5260,-3184,-1968,18917
0.01657267,-11976,-7176,-3244,-3168,1733,9267
0.0165744,-13704,-6744,-2344,-3168,6252,1336
0.01657284,-14748,-7968,-1416,-3152,2074,-2430
0.01657284,-13336,-7000,-2712,-3184,487,-7683
0.01657417,-14592,-7520,700,-3184,3312,-8535
0.01657262,-15692,-5944,484,-3200,3111,-1671
0.01657262,-17072,-7288,-880,-3184,5079,-2190
0.01657411,-16060,-8428,1996,-3184,2617,3185
0.01657406,-16972,-7768,-432,-3152,2772,4749
0.01657665,-14684,-9168,-432,-3184,1230,592
0.01657359,-14932,-6812,20,-3152,189,-4054
0.01657359,-16180,-6040,-148,-3184,-111,-260
0.01657235,-15900,-5856,-248,-3152,2508,3740
0.01657235,-17948,-7028,-3160,-3168,5674,6346
0.0165719,-17912,-9000,-3896,-3184,15918,-2629
0.01657226,-18812,-10052,1836,-3200,18686,-17137
0.01657226,-16860,-6628,4316,-3184,-7400,-29217
0.01657314,-2688,-9212,11088,-3152,9083,-21829
0.01657314,-4608,-3448,10460,-3152,8786,4620
0.0165741,-6852,272,9508,-3200,-10760,3496
0.01657385,-6956,-7140,11064,-3216,-27985,10752
0.01657386,-5388,-188,-1144,-3168,-32768,32767
0.01657763,-29576,120,-27728,-3184,-19905,18246
0.01657763,-16304,-1020,-4304,-3168,11682,-2500
0.01657872,-15332,-3060,228,-3168,8304,6224
0.01657872,-19408,-6736,344,-3168,2268,5859
0.0165758,-20084,-3616,-2168,-3152,-2387,7108
0.01657876,-15452,-2032,-4028,-3184,-3915,12705
0.01657876,-14088,-368,-7216,-3168,-1245,11363
0.01859545,-12404,712,-7248,-3152,1566,5905
0.01859545,-13056,-352,-6016,-3168,7438,-318
0.01658002,-14840,-2160,-4740,-3184,9737,-808
0.01657996,-15740,-3800,-4684,-3168,6459,-3179
0.01657996,-16648,-5328,-2956,-3168,1479,-1836
0.01657945,-17660,-4196,-4188,-3184,287,3540
0.01657945,-15988,-2048,-6228,-3184,-1587,-3835
0.01657842,-15160,-1056,-6428,-3168,5072,-3738
0.01657801,-17648,-1448,-6224,-3184,11244,287
0.01657801,-18932,-3528,-3484,-3184,11021,-2044
0.01657769,-14196,-2300,-1356,-3184,7513,340
0.01657769,-17576,-740,736,-3120,3467,-2139
0.01661375,-14996,2056,3788,-3152,-1160,-340
0.01657784,-13108,268,3724,-3152,-9947,8256
0.01657784,-10424,-688,-788,-3184,-18911,13600
0.01657791,-11904,1628,-12388,-3152,-13849,6228
0.01657791,-13988,2640,-12116,-3184,-2912,-7988
0.01657918,-17492,1000,-6028,-3168,3164,-8464
0.01657835,-16508,-1312,-3392,-3152,5890,1543
0.01657799,-17180,552,-3988,-3184,6459,5019
0.01657799,-16404,508,-5332,-3168,5432,6150
0.01657715,-15720,-156,-7308,-3184,4950,3946
0.01657715,-14628,-624,-6616,-3152,5416,-2071
0.01658002,-13324,-1244,-3248,-3184,2549,-6751
0.01457683,-14948,-1556,-3836,-3136,-746,-6159
0.01858035,-16228,-1132,-4036,-3152,-2340,-8916
0.01657862,-17060,-48,-3192,-3152,-215,-2450
0.01657862,-17200,644,-4312,-3184,930,459
0.01657793,-16624,548,-4120,-3168,830,-1728
0.01657793,-15536,664,-3588,-3184,-122,-2504
0.01657893,-15732,304,-3336,-3136,-153,-1771
0.01657873,-16124,292,-3992,-3168,1223,-2368
0.01657823,-15812,996,-2992,-3168,2951,-2443
0.01657788,-16152,528,-2712,-3200,4039,1345
0.01657788,-16320,1588,-1536,-3120,6024,7952
0.01657728,-17244,-1632,-3364,-3168,5222,7502
0.0165769,-17644,-1712,-4580,-3184,6204,7926
0.01657693,-16952,-3684,-4084,-3168,3012,2645
0.01657616,-16228,-3344,-3976,-3168,-763,2425
0.01657616,-15720,-2652,-6052,-3168,-908,1
0.01657646,-15768,-3516,-5680,-3184,3380,-7991
0.01657925,-15612,-2748,-2296,-3168,852,-10456
0.01657925,-16028,-1640,-2864,-3184,-1992,-2699
0.01657932,-16104,-1772,-2812,-3168,-1141,-1267
0.01657932,-16084,-2036,-3048,-3168,-866,520
0.01657878,-17064,-2036,-2412,-3120,-636,1720
0.01657878,-16428,-1820,-3780,-3168,1787,2017
0.0165734,-15876,-260,-4008,-3168,5741,3395
0.01657842,-16508,-2708,-3952,-3152,6835,1031
0.01657842,-17256,-2264,-1912,-3136,5155,1289
0.01657901,-15324,-5432,-3164,-3184,9015,3118
0.01657842,-17508,-4412,-2880,-3168,13423,4908
0.01657842,-15788,-1748,-5568,-3168,15855,-878
0.01657856,-16072,-716,-2160,-3168,15343,-5622
0.01657856,-15500,-3144,-7060,-3136,18114,-10733
0.01657817,-15600,-132,588,-3152,11949,-26922
0.01657817,-15492,-216,3168,-3136,706,1077
0.01657768,-17156,-1880,532,-3152,-3813,-633
0.01657575,-16596,-2444,-560,-3152,-3812,1788
0.01657575,-17116,-2988,-1444,-3120,-6594,-1281
0.01657917,-13812,1180,972,-3152,-4888,-1030
0.0165793,-15396,-4768,-732,-3136,-7903,-4811
0.0165793,-16088,-4228,8,-3136,-1314,-3832
0.01657908,-16156,-3452,-56,-3184,1647,-5634
0.01657905,-16052,-4736,1208,-3168,1284,-5704
0.01657905,-15916,-2544,2032,-3152,-1051,-4246
0.01657842,-15944,-3536,1128,-3152,-1798,-4360
0.01657908,-15328,-3560,2052,-3168,-3327,-3362
0.01657816,-15944,-2992,1756,-3168,-886,-4665
0.01657816,-16116,356,6108,-3136,-1821,-3568
0.01657868,-15216,-1940,3084,-3184,-9422,6416
0.01657704,-18184,1564,-2596,-3184,-3292,11565
0.01657879,-15656,644,2196,-3152,-701,7009
0.01657879,-16468,852,660,-3104,-2179,6839
0.01657851,-17600,-624,644,-3168,-100,670
0.01657851,-16308,988,1356,-3136,-767,-894
0.01657914,-16668,-996,1236,-3168,-955,334
0.01657674,-17048,-2728,456,-3152,-1135,4415
0.01657674,-15124,-2812,-1252,-3136,-4301,2624
0.01657886,-16980,480,1300,-3152,-662,4542
0.01657886,-14824,1528,-1416,-3136,-11726,4769
0.01658057,-16712,-1896,-632,-3168,-2669,8197
0.0165767,-13772,-108,-3364,-3184,131,12052
0.0165767,-13508,-124,-928,-3168,-7661,21993
0.01657758,-18608,-4584,-5992,-3152,392,3123
0.01657758,-14508,3988,-5248,-3152,4450,-13870
0.0165787,-20676,-9696,840,-3168,-1635,-19137
0.01658,-13836,-6928,1660,-3152,-1016,-1330
0.01658,-15848,-1024,352,-3152,-1678,7617
0.01657873,-14972,-5096,-4376,-3152,-2160,1838
0.01657873,-14796,-4900,-1680,-3184,-1547,-1012
0.01657883,-15928,-4624,-2008,-3136,-2072,2320
0.01657724,-15580,-3344,-2736,-3152,-1616,-952
0.01657554,-16016,-3700,-2560,-3152,-369,-1234
0.01657554,-15628,-4196,-1740,-3152,-791,-1494
0.01657656,-15424,-4720,-1804,-3120,-1006,-1422
0.01657843,-15508,-4308,-1296,-3136,-1525,-1007
0.01658187,-14944,-4496,-1832,-3120,-4538,-2428
0.01657796,-16584,-3312,-2172,-3152,-3600,-1912
0.01657796,-16856,-1884,-1520,-3168,-707,-1228
0.01657657,-16500,-3524,-1184,-3120,575,-15
0.01657657,-15700,-4412,-1596,-3136,507,-199
0.01657785,-15800,-4596,-1304,-3168,309,-441
0.01657854,-16380,-4404,-1044,-3136,-388,-193
0.01657854,-16104,-3776,-792,-3152,-1805,183
0.01657861,-15684,-3484,-1604,-3136,-2876,-884
0.01657801,-15492,-3188,-1768,-3168,-2009,-961
0.01657801,-15448,-3368,-1472,-3152,-1772,-1730
0.01657691,-15824,-3648,-1012,-3120,-2035,-1188
0.01657818,-15844,-3808,-1068,-3136,-2477,-2027
0.01657818,-16128,-3600,-1104,-3120,-1632,-1920
0.01657677,-16132,-3492,-860,-3168,-258,-635
0.01657848,-16292,-3472,-948,-3152,815,344
0.01657848,-16464,-3904,-832,-3184,1595,754
0.01657709,-16404,-4132,-660,-3152,1907,496
0.01657709,-16268,-3988,-684,-3152,1581,979
0.0165787,-15856,-3684,-840,-3168,1100,1492
0.01657839,-15680,-3436,-1028,-3152,632,913
0.01657839,-15576,-3404,-1244,-3104,323,581
0.01657823,-15600,-3668,-1016,-3120,10,167
0.01657722,-15792,-3588,-1084,-3152,-152,-49
0.01657684,-16004,-3516,-944,-3152,-243,110
0.01657684,-16108,-3628,-1084,-3104,-299,384
0.01657457,-16064,-3312,-1092,-3120,-120,203
0.01657709,-16168,-3356,-988,-3136,45,225
0.01657837,-16152,-3516,-1092,-3120,140,181
0.01657758,-16312,-3420,-988,-3136,189,107
0.01657971,-16344,-3712,-1216,-3136,224,-1190
0.01657971,-15772,-3768,-780,-3136,299,-935
0.01657643,-15916,-3768,-784,-3184,324,-654
0.01657902,-15764,-3728,-652,-3120,116,-4
0.01657902,-15780,-3544,-780,-3168,-95,62
0.01657709,-15820,-3360,-964,-3152,-338,159
0.01657709,-15804,-3376,-904,-3136,-443,28
0.01658056,-15952,-3344,-760,-3152,-309,-90
0.01658409,-16180,-3352,-772,-3120,-129,11
0.01658409,-16408,-3428,-780,-3136,-148,101
0.01658409,-16096,-3528,-592,-3184,130,-165
0.01658409,-16124,-3620,-540,-3136,-75,215
0.01658409,-16108,-3516,-716,-3152,-128,394
0.01658409,-16080,-3520,-808,-3152,-19,399
0.1989814,-15912,-3476,-768,-3152,156,68
0.1989814,-15944,-3616,-476,-3152,-42,213
0.01658235,-15772,-3696,-912,-3136,-196,683
0.01658035,-15648,-3824,-956,-3120,91,339
0.01658223,-15824,-3728,-836,-3120,22,336
0.01658265,-15900,-3596,-944,-3136,58,260
0.01658308,-15972,-3392,-796,-3120,35,-27
0.01658308,-16456,-3404,-612,-3120,197,179
0.01658222,-16404,-3576,-404,-3152,204,327
0.01658062,-16320,-3708,-460,-3168,-132,175
0.01658069,-16300,-3480,-536,-3136,-630,573
0.01658334,-16120,-3484,-700,-3104,-1078,1128
0.01658334,-15884,-3224,-1156,-3136,-1155,1039
0.01658317,-15980,-2856,-1120,-3120,-727,1324
0.01657903,-15924,-3132,-1356,-3136,196,999
0.01658089,-15680,-3384,-1056,-3152,507,663
0.01658389,-15524,-2868,-1264,-3136,-186,1027
0.01658207,-13180,-2900,-1760,-3104,291,-5881
0.01658207,-17588,-4672,968,-3136,3214,66
0.01658237,-16160,-5276,252,-3120,2080,-1545
0.01658166,-16104,-4076,-1888,-3136,-1595,2396
0.01658152,-15432,-3160,-732,-3120,-551,-1366
0.01658152,-15748,-2684,-1092,-3120,349,-448
0.0165817,-16172,-3484,-572,-3136,489,1594
0.01658154,-16276,-3568,-344,-3168,262,1112
0.01658154,-16012,-3224,-780,-3120,177,338
0.01658095,-15728,-3092,-800,-3136,389,-475
0.0165794,-15588,-3324,-600,-3136,414,149
0.0165794,-15688,-3528,-1044,-3120,551,-68
0.01658277,-15980,-3404,-776,-3136,478,-167
0.01658311,-16060,-3252,-448,-3136,221,-200
0.0165818,-16008,-3324,-544,-3152,427,-71
0.0165818,-16064,-3448,-36,-3152,864,-325
0.0165818,-16336,-3620,-120,-3136,438,-228
0.01658139,-16680,-3488,-468,-3152,-151,236
0.01658146,-16512,-3296,-632,-3136,-214,319
0.01658146,-16096,-3284,-764,-3136,120,206
0.01658218,-15872,-3352,-300,-3120,80,-8
0.01658143,-15836,-3508,-516,-3152,21,-158
0.01658194,-15828,-3360,-596,-3104,-84,-170
0.01658194,-15836,-3368,-460,-3120,67,-300
0.01658187,-15844,-3232,-576,-3136,-30,132
0.01658309,-15932,-3284,-404,-3104,51,59
0.01658309,-15988,-3208,-472,-3104,291,-4
0.01658262,-16028,-3424,-128,-3104,429,-272
0.01658195,-16000,-3456,56,-3136,228,-86
0.01658327,-16176,-3420,-228,-3136,-115,243
0.01657934,-16216,-3496,-136,-3136,-143,286
0.01658124,-16100,-3660,-88,-3104,-174,75
0.0165818,-16216,-3400,-144,-3152,-117,53
0.0165818,-16172,-3516,-132,-3120,-131,17
0.01658083,-15964,-3404,-400,-3120,-91,193
0.01658083,-15840,-3444,-320,-3136,-153,261
0.01658101,-15900,-3388,-276,-3136,-86,191
0.01658159,-15948,-3440,-384,-3104,-13,66
0.01658159,-15948,-3400,-224,-3120,35,54
0.01658022,-16312,-3140,-228,-3120,33,131
0.0165836,-16020,-3488,-416,-3152,103,-91
0.01658073,-16044,-3160,-332,-3120,188,-155
0.01658235,-15984,-3264,-424,-3120,202,-117
0.01658235,-16092,-3292,-132,-3120,261,-110
0.01657971,-16164,-3252,-48,-3120,253,210
0.01658155,-16072,-3280,-48,-3136,331,-71
0.01658155,-16028,-3380,-456,-3104,418,4
0.01658206,-16100,-3456,120,-3152,391,153
0.01658285,-16048,-3380,-12,-3120,218,216
0.01658285,-15988,-3388,-200,-3120,98,416
0.01658112,-16100,-3404,-8,-3136,85,51
0.01658032,-16044,-3264,44,-3088,4,-207
0.01658032,-16040,-3400,48,-3104,2,-105
0.01658237,-16116,-3336,-120,-3120,-80,-64
0.01658059,-16036,-3344,-132,-3120,0,-49
0.01658118,-16088,-3388,-56,-3136,19,19
0.01658118,-16128,-3376,-168,-3152,100,304
0.01658154,-16192,-3404,-48,-3120,364,173
0.01658023,-16096,-3508,172,-3120,348,181
0.01658331,-16064,-3364,136,-3120,216,611
0.01658173,-15928,-3516,-312,-3152,170,677
0.0165841,-16076,-3544,-152,-3120,333,143
0.0165841,-16096,-3488,-64,-3136,82,385
0.01658097,-15976,-3364,-256,-3120,246,357
0.01658323,-15932,-3372,68,-3120,83,131
0.01658085,-15952,-3448,-64,-3072,-78,-157
0.01658114,-15952,-3516,68,-3104,-334,-721
0.01658052,-15948,-3800,236,-3136,-378,-1201
0.01658255,-16060,-3240,-28,-3120,347,-1108
0.01658255,-16112,-3536,320,-3088,61,-582
0.01654455,-16020,-3428,440,-3152,-147,-460
0.01658222,-15944,-3464,4,-3104,51,438
0.01658222,-16276,-3412,8,-3120,152,362
0.01658256,-15800,-3484,236,-3136,127,138
0.01658023,-15792,-3556,164,-3120,-6,324
0.01658136,-15952,-3572,20,-3104,41,93
0.01658055,-16244,-3388,180,-3136,181,-82
0.01658055,-16188,-3476,552,-3152,114,255
0.01658166,-16124,-3692,244,-3120,-160,829
0.01658034,-15932,-3376,192,-3104,9,424
0.01658034,-15868,-3524,76,-3088,188,-23
0.01658375,-16080,-3296,-28,-3136,151,-21
0.01658148,-16192,-3552,212,-3136,16,-59
0.01658015,-16224,-3600,196,-3088,33,142
0.01658161,-15988,-3364,216,-3136,-9,382
0.01658161,-16644,-3244,-124,-3104,73,169
0.01658206,-16136,-3360,208,-3120,-43,300
0.01658206,-16036,-3256,284,-3136,-22,262
0.01658167,-15960,-3336,196,-3104,54,-59
0.01658245,-15988,-3224,284,-3120,38,-7
0.01658245,-16108,-3476,-44,-3088,-37,86
0.01658201,-16140,-3432,100,-3120,3,178
0.01658201,-16056,-3388,312,-3088,-71,289
0.01658265,-16072,-3344,204,-3104,-20,224
0.01658123,-16084,-3232,364,-3104,-1,120
0.01658123,-16116,-3284,140,-3120,-58,167
0.01658126,-16072,-3272,508,-3088,-19,274
0.01658159,-16032,-3268,288,-3104,12,246
0.01658159,-16220,-3196,124,-3104,65,118
0.01658187,-16036,-3324,172,-3072,75,76
0.01658323,-15972,-3272,308,-3088,10,174
0.01658323,-16088,-3252,196,-3104,-64,354
0.01658059,-16068,-3396,260,-3120,-54,170
0.01658069,-15988,-3292,228,-3072,-44,284
0.01658069,-16008,-3280,36,-3136,-145,416
0.01658126,-16060,-3296,-16,-3072,-102,100
0.01658145,-16044,-3228,156,-3088,-72,42
0.01658088,-15836,-3172,708,-3088,265,-356
0.01658088,-16280,-3332,348,-3088,-243,526
0.01657914,-16348,-3028,188,-3088,-57,262
0.01658292,-15984,-3328,184,-3104,-164,428
0.01657876,-15968,-3032,96,-3072,-107,215
0.01657876,-15984,-3224,92,-3104,-114,200
0.01658245,-16092,-3120,212,-3104,-55,233
0.01658162,-16128,-3240,8,-3120,-12,322
0.01658271,-16156,-3120,144,-3120,57,172
0.016581,-16012,-3180,0,-3136,-16,334
0.01658044,-16140,-3120,116,-3088,-40,303
0.01658044,-16224,-3176,200,-3120,-40,300
0.0160949,-16180,-3124,220,-3088,-47,286
0.01658116,-16140,-3156,44,-3120,-27,254
0.01658131,-16068,-3204,140,-3104,7,230
0.01658131,-16008,-3268,-68,-3056,19,141
0.01657352,-16156,-3212,184,-3120,-33,251
0.01657397,-16088,-3144,20,-3056,-147,361
0.01657433,-16072,-3112,-36,-3088,-96,154
0.01657481,-16040,-3252,56,-3136,-94,26
0.01657173,-16128,-3192,116,-3088,-215,322
0.01657217,-16124,-3060,36,-3088,-210,323
0.01657217,-16008,-3204,40,-3104,-31,208
0.01657341,-16108,-3212,116,-3120,-20,114
0.01657321,-16320,-3232,16,-3088,-23,80
0.01657321,-16084,-3164,168,-3104,-68,202
0.01657418,-15992,-3324,260,-3104,29,353
0.01657338,-15844,-3172,432,-3088,6,-75
0.0165725,-15992,-3080,-8,-3056,-52,43
0.0165725,-16032,-3240,60,-3104,-86,164
0.01657319,-16068,-3164,-8,-3104,-78,195
0.01657427,-16040,-3084,-112,-3088,-54,155
0.01657457,-15952,-3160,-76,-3088,-60,288
0.01657411,-16016,-3148,-100,-3136,13,117
0.01657411,-15884,-3276,32,-3072,259,172
0.01658014,-16132,-3128,112,-3120,60,244
0.01658014,-16068,-3316,396,-3088,-177,-252
0.01657283,-16200,-3124,-20,-3088,-326,316
0.01657484,-16140,-3072,52,-3104,-82,107
0.01657484,-16112,-2972,-12,-3104,-25,118
0.01657424,-16108,-3172,96,-3072,-209,244
0.01657424,-16052,-3204,12,-3088,-390,202
0.016573,-16024,-3108,124,-3104,-248,-228
0.01657315,-16096,-2856,-96,-3104,-191,-226
0.01657315,-16068,-3016,44,-3104,75,180
0.01657432,-15880,-3100,-20,-3104,156,321
0.01657432,-15992,-3272,196,-3088,208,161
0.01657464,-16080,-3212,-4,-3088,182,445
0.01657242,-16136,-3060,16,-3104,88,602
0.01657416,-16128,-3092,8,-3088,-128,727
0.01657416,-15996,-3308,324,-3088,-255,713
0.01657535,-16240,-2832,-248,-3104,-369,708
0.01657375,-15924,-2936,-16,-3104,-213,190
0.01657375,-16320,-3012,-112,-3088,-141,-81
0.01657429,-16196,-3032,-152,-3104,-66,-127
0.01644661,-16124,-2968,-88,-3104,-166,229
0.01670013,-16140,-2952,-104,-3088,-172,254
0.0165747,-16112,-2948,-220,-3088,-75,-8
0.0148515,-16084,-3068,-32,-3088,-94,-43
0.01657477,-16172,-3168,-4,-3056,-159,90
0.01657477,-16224,-3036,8,-3104,-149,254
0.01657297,-16104,-3160,-184,-3072,-116,267
0.01657333,-15980,-3052,-48,-3088,-154,178
0.01657392,-16016,-3028,-296,-3072,-60,-31
0.01657392,-16168,-3032,-32,-3120,-36,-215
0.01657561,-16104,-3024,76,-3104,-205,55
0.01657399,-16172,-3068,-20,-3088,-239,169
0.01657399,-16136,-2924,-8,-3088,-129,59
0.01657241,-16224,-2984,-80,-3088,-34,83
0.01657501,-16192,-3000,-240,-3088,16,260
0.01657462,-16128,-3044,-100,-3104,33,191
0.01657277,-16220,-2960,-60,-3104,42,196
0.01657365,-16040,-3040,20,-3088,61,144
0.01657365,-16056,-3040,76,-3104,30,125
0.01657378,-15880,-3212,-84,-3120,53,29
0.01657365,-16044,-3176,240,-3088,-46,38
0.01657398,-16184,-3144,120,-3088,-159,-48
0.01657398,-16128,-3052,44,-3088,-319,41
0.01657308,-16244,-2812,-28,-3088,-253,126
0.0165744,-16200,-2988,-88,-3104,-162,144
0.01658485,-16196,-3024,124,-3104,-200,229
0.01658838,-16116,-3016,28,-3056,-79,78
0.01658719,-16040,-2852,288,-3072,83,91
0.01658719,-16264,-3104,64,-3072,-59,162
0.01658725,-16284,-3072,-24,-3072,-104,208
0.01658586,-16108,-2908,160,-3088,-182,242
0.01658685,-16024,-3040,-100,-3056,-186,201
0.01658719,-16204,-2896,-32,-3072,-151,126
0.01658492,-16124,-2992,44,-3104,-145,101
0.01658492,-16128,-2960,116,-3088,-245,218
0.01658555,-16220,-2992,-144,-3056,-258,203
0.01658555,-16144,-3012,-36,-3040,-215,86
0.01658716,-16204,-2808,244,-3056,-243,275
0.01658597,-16256,-3000,156,-3072,-380,492
0.01658597,-16020,-2860,-228,-3104,-217,293
0.01658673,-16144,-2948,-48,-3056,-176,214
0.01658673,-15960,-2960,8,-3072,-201,219
0.01658665,-16148,-2936,-96,-3072,-146,241
0.01917191,-16044,-2992,-196,-3072,-62,91
0.01917191,-16080,-3032,-80,-3088,-28,59
0.016589,-16192,-3120,12,-3088,-116,214
0.01658572,-16020,-3184,-124,-3088,-144,175
0.01658562,-16164,-3164,-16,-3104,-95,-9
0.01658696,-16176,-3056,-132,-3088,-199,201
0.01658696,-16108,-3112,-212,-3104,-188,100
0.01658752,-16044,-3160,-24,-3056,-181,114
0.01657471,-16128,-3152,-40,-3072,-219,155
0.01657471,-16184,-3028,-80,-3120,-183,189
0.01658615,-16100,-3040,16,-3056,-83,127
0.01658615,-16160,-2940,-12,-3056,7,80
0.01658738,-16136,-3004,-60,-3056,-69,242
0.01658738,-16048,-3036,-76,-3072,-136,185
0.01658617,-16028,-3044,-164,-3088,21,10
0.01658679,-16136,-3136,-68,-3040,58,-56
0.01658679,-16404,-3060,36,-3072,-136,265
0.01658726,-16204,-2868,132,-3024,-118,237
0.01658757,-16148,-2884,136,-3072,-130,157
0.01658757,-16192,-2844,-320,-3024,-200,99
0.01659032,-16164,-3044,-44,-3088,-128,52
0.01659032,-16220,-2976,4,-3104,-162,83
0.01658844,-16072,-2936,-140,-3056,-211,294
0.01658631,-16128,-2964,-40,-3072,-58,123
0.01658431,-16116,-2980,-188,-3088,19,67
0.01658431,-16072,-3000,192,-3072,-31,232
0.01658895,-16220,-2984,-212,-3088,-134,317
0.01658525,-16132,-2972,-68,-3088,-110,280
0.01658525,-16144,-2992,56,-3088,-209,522
0.01658594,-15884,-3036,168,-3088,-261,484
0.01658693,-16304,-2968,-20,-3088,-194,324
0.01658693,-16312,-2856,96,-3056,-166,214
0.01658624,-16268,-2908,100,-3056,-137,254
0.01658561,-16232,-2792,-48,-3072,-221,361
0.01658578,-16132,-2976,20,-3040,-233,394
0.01658578,-15996,-2912,136,-3056,-289,40
0.01658423,-16100,-2824,-104,-3056,-349,-375
0.01658793,-16140,-2904,-228,-3088,-466,-519
0.01658793,-16108,-2964,-508,-3072,-271,-714
0.01659025,-16124,-2860,-116,-3072,-325,-202
0.01659025,-16228,-3032,24,-3088,-162,163
0.01658886,-16360,-2764,132,-3040,-167,598
0.01658886,-16140,-2824,-56,-3072,-157,787
0.01658615,-16104,-2704,96,-3072,-184,584
0.01658752,-16144,-2836,-168,-3056,-76,158
0.01658468,-16060,-2864,-156,-3056,-281,374
0.01658468,-16140,-2776,-188,-3104,-229,264
0.01658706,-16368,-2936,-20,-3056,-105,43
0.01658706,-16188,-2872,-128,-3040,-347,503
0.01658693,-16068,-2848,-208,-3056,-343,448
0.01658731,-16052,-2788,-196,-3072,-252,37
0.01658731,-16224,-2892,68,-3088,-326,-80
0.01658501,-16256,-2868,-180,-3088,-556,94
0.01658501,-16484,-2580,-100,-3056,-1011,-458
0.01658565,-16180,-2768,-352,-3088,-405,-32
0.01658727,-16220,-2736,-200,-3104,-293,-19
0.0165845,-16040,-2812,-240,-3072,-312,91
0.01659067,-15640,-2920,-132,-3056,-492,-198
0.01659067,-16148,-2888,-20,-3072,-159,-240
0.01658518,-16504,-3000,84,-3072,-300,117
0.01658518,-16476,-2812,-184,-3072,-575,768
0.01658699,-16028,-2856,-132,-3088,-746,936
0.01658606,-16136,-2664,-364,-3056,-501,578
0.01658606,-16096,-2644,-336,-3088,-168,265
0.01658647,-16104,-2804,-316,-3056,-22,-73
0.01658648,-16244,-2708,-280,-3072,64,-413
0.01658534,-16296,-2736,-20,-3056,-263,348
0.01658529,-16240,-2676,-136,-3056,-244,303
0.0165875,-16076,-2828,-272,-3056,-174,64
0.01658927,-16132,-2800,-92,-3056,-227,344
0.01658646,-16188,-2764,-276,-3072,-161,160
0.01658646,-16008,-2724,-156,-3056,-179,23
0.01605439,-16248,-2768,-196,-3056,-323,128
0.01605439,-16228,-2640,-452,-3056,-224,129
0.01658773,-16132,-2860,-356,-3104,-51,-124
0.01658773,-16208,-2880,-144,-3072,-94,-227
0.01658791,-16144,-2684,-236,-3072,-243,123
0.01658423,-16364,-2692,-40,-3088,37,-317
0.01658423,-16160,-2836,124,-3056,3,-292
0.01658463,-16328,-2712,-36,-3040,-65,-308
0.01658463,-16304,-2628,-156,-3040,-142,-395
0.01658792,-16240,-2816,0,-3024,-233,-285
0.01658861,-16044,-2760,-20,-3056,-59,-507
0.01658861,-16064,-2676,32,-3072,217,-662
0.01658802,-16088,-2812,20,-3040,540,-1042
0.01658554,-16060,-2940,492,-3024,173,-444
0.01658511,-16360,-2728,44,-3056,107,-429
0.0165854,-15932,-3104,772,-3088,-162,-118
0.0165854,-16004,-2920,284,-3072,-279,76
0.01658653,-16196,-2832,216,-3072,-105,-121
0.01658682,-16148,-2884,480,-3056,-56,-133
0.01658682,-16236,-2860,404,-3056,-167,29
0.01658612,-16224,-2712,528,-3072,-72,159
0.01658612,-16156,-2800,668,-3040,-46,269
0.01658232,-16172,-2948,456,-3040,-162,145
0.01658553,-16072,-2812,572,-3040,-126,246
0.01658436,-16224,-2636,144,-3056,-193,327
0.01658915,-16128,-2656,348,-3056,-136,266
0.01658703,-16044,-2796,400,-3072,-84,165
0.01658703,-16100,-2672,428,-3024,46,112
0.0165865,-16140,-2632,212,-3024,-21,150
0.0165865,-16132,-2692,360,-3072,73,50
0.01658777,-16120,-2632,316,-3072,13,-97
0.01658139,-16232,-2776,408,-3056,-71,37
0.01658139,-16100,-2688,216,-3040,29,-119
0.0165832,-16196,-2744,380,-3056,56,-273
0.01658934,-16380,-2708,704,-3040,194,-118
0.01658719,-16284,-2588,428,-3056,-83,494
0.01658784,-16096,-2476,348,-3040,31,405
0.01658784,-16068,-2664,400,-3056,198,-2
0.01612791,-16188,-2632,616,-3040,138,37
0.01612791,-16172,-2640,740,-3056,182,127
0.01657749,-16232,-2444,836,-3056,206,-232
0.01657749,-16284,-2448,452,-3088,63,-30
0.01657646,-16168,-2392,624,-3072,175,-166
0.01657646,-16132,-2732,512,-3056,-12,-345
0.01657711,-16096,-2656,480,-3040,-239,93
0.01657711,-16200,-2532,472,-3040,-248,103
0.01657877,-16152,-2472,436,-3056,-170,-181
0.01657767,-16180,-2444,840,-3040,-118,-14
0.01657767,-16200,-2592,652,-3040,-90,-54
0.01657905,-16128,-2660,672,-3024,-167,-91
0.01657905,-15988,-2624,564,-3072,-110,-264
0.01657788,-16200,-2588,948,-3024,-51,-318
0.01657788,-16016,-2440,1036,-3008,-160,-528
0.01657814,-16188,-2700,640,-3040,-49,-892
0.01657678,-16296,-2684,888,-3072,78,-668
0.01657678,-16372,-2724,940,-3056,-88,60
0.01657671,-16332,-2648,928,-3040,-10,377
0.01657738,-16052,-2440,920,-3040,84,375
0.01657738,-16220,-2532,1020,-3024,-87,388
0.01657719,-16372,-2604,956,-3056,-4,387
0.01657719,-16000,-2688,772,-3040,-58,220
0.01657786,-15972,-2520,748,-3072,-52,-8
0.01657786,-16200,-2672,580,-3024,-100,2
0.01657854,-16112,-2624,756,-3056,-103,98
0.01658021,-16192,-2444,812,-3040,-20,91
0.01658021,-16224,-2468,1160,-3040,-25,96
0.01657787,-16116,-2556,804,-3024,-76,-16
0.01657787,-16336,-2648,916,-3040,-105,14
0.01657779,-16000,-2652,924,-3056,-257,102
0.01657824,-16224,-2540,904,-3024,-192,69
0.01657824,-16248,-2456,1264,-3024,-142,94
0.01657621,-16152,-2480,804,-3056,-196,83
0.01657704,-16140,-2604,844,-3056,5,-136
0.01657704,-16168,-2596,808,-3008,-31,29
0.01657935,-16192,-2636,992,-3024,-108,280
0.01657606,-16228,-2488,1060,-3040,-101,242
0.01657899,-16112,-2556,936,-3040,-52,51
0.01657899,-16260,-2848,788,-3024,65,112
0.01658623,-16124,-2552,984,-3024,4,207
0.01657895,-16268,-2548,1060,-3040,52,141
0.01657895,-16012,-2596,852,-3072,-8,88
0.01657823,-16008,-2592,780,-3056,-152,-115
0.01658126,-16192,-2612,740,-3056,-340,-40
0.01657793,-16156,-2632,1156,-3024,-267,114
0.01657793,-16132,-2516,984,-3040,-157,51
0.01657726,-16188,-2532,948,-3024,-220,-74
0.01657844,-16072,-2728,976,-3040,-186,-120
0.01657844,-16172,-2704,1156,-3040,-170,-15
0.01657946,-16284,-2644,1032,-3056,-277,265
0.01657844,-16096,-2412,1088,-3040,-183,193
0.01657844,-16132,-2612,968,-3040,-104,2
0.01657842,-16068,-2564,1204,-3008,-75,42
0.01657749,-16152,-2632,1128,-3040,-87,5
0.01657749,-16200,-2528,804,-3040,-81,40
0.0165763,-16164,-2504,1184,-3040,-55,-55
0.01657656,-16088,-2648,952,-3008,-58,-61
0.01657656,-16140,-2684,1044,-3040,-69,30
0.01657809,-16048,-2836,932,-3024,-192,7
0.01658757,-16216,-2716,992,-3024,-290,31
0.01658757,-16096,-2584,1092,-3040,-302,174
0.0165851,-16164,-2484,1348,-3040,-260,157
0.0165851,-16160,-2512,1396,-3024,-62,-51
0.01658327,-16116,-2512,1164,-3024,-149,134
0.01658307,-16096,-2728,928,-3056,-3,-47
0.01658587,-16228,-2592,1224,-3024,-40,168
0.01658587,-16188,-2684,1048,-3072,-71,343
0.01658363,-16068,-2492,1160,-3024,20,82
0.01658623,-16128,-2772,1232,-3040,-27,117
0.01658402,-16060,-2704,1136,-3040,-105,194
0.01658673,-16088,-2716,1008,-3024,-283,86
0.01658673,-16172,-2856,956,-3056,-590,110
0.01658461,-16152,-2740,1416,-3056,-340,52
0.01658461,-16296,-2516,1528,-3040,-325,391
0.01658202,-16116,-2484,864,-3056,-99,302
0.01658565,-16172,-2584,1088,-3040,7,113
0.01658565,-16116,-2724,1156,-3040,-61,190
0.01658262,-16060,-2740,1204,-3024,45,151
0.01658262,-16152,-2664,1128,-3024,-38,200
0.0165812,-16212,-2512,1076,-3056,-49,125
0.016582,-16148,-2664,1036,-3024,30,48
0.01658392,-16116,-2720,1160,-3040,-34,124
0.01658392,-16200,-2740,1048,-3024,-140,244
0.01658507,-16072,-2668,1164,-3040,-130,130
0.01658514,-16072,-2608,1164,-3040,-161,132
0.01658514,-16012,-2556,1184,-3008,-144,-14
0.01658493,-16100,-2588,1128,-3056,-60,-154
0.01658493,-16300,-2484,1292,-3040,-72,-90
0.01658576,-16084,-2456,1372,-3056,-94,-121
0.01658423,-16120,-2532,1260,-2992,36,-481
0.01658528,-16208,-2696,1012,-3056,-74,-165
0.01658528,-16244,-2716,1036,-3040,-14,116
0.01658487,-16168,-2720,1096,-3008,-62,422
0.01658487,-15864,-2664,944,-3008,-32,459
0.01658542,-15964,-2444,1136,-3040,121,146
0.01658542,-16008,-2708,1220,-3008,66,11
0.01658534,-15996,-2720,1376,-3024,9,-28
0.01658508,-15972,-2736,1300,-3008,-202,258
0.01658444,-16064,-2612,1180,-3040,-94,-112
0.01658381,-16240,-2532,1404,-3024,-149,-91
0.01658587,-16240,-2580,1120,-3088,-275,122
0.01658388,-16156,-2524,1092,-3008,-140,78
0.01658388,-16172,-2524,1096,-3008,-159,235
0.01658031,-16112,-2564,1208,-3008,-68,83
0.01658451,-16116,-2616,1284,-3056,-26,-36
0.01658451,-16032,-2644,1316,-3008,-119,28
0.01658306,-16008,-2748,1236,-2992,-31,90
0.01658306,-16108,-2712,1324,-3008,-63,53
0.0165865,-16132,-2604,1328,-3024,-102,105
0.0165865,-16088,-2536,1536,-3040,-129,175
0.01656349,-16020,-2664,1028,-3040,-38,24
0.01658082,-16136,-2580,1376,-3008,40,-46
0.01658054,-16204,-2616,1384,-3008,76,78
0.01658054,-16088,-2640,1424,-3040,9,182
0.01658132,-16024,-2640,1364,-3040,95,7
0.01658124,-16024,-2664,1372,-3024,-16,56
0.01658124,-16164,-2636,1404,-3040,-53,118
0.01658003,-16140,-2636,1248,-3024,-42,168
0.01658003,-16056,-2648,1472,-3024,-89,177
0.01657655,-16148,-2664,1320,-3024,-129,460
0.01658225,-16164,-2672,1384,-3008,100,237
0.01658045,-16088,-2692,1476,-3040,50,152
0.01658045,-16072,-2632,1372,-2992,3,150
0.01658301,-16100,-2600,1292,-3008,-32,158
0.01657979,-16100,-2776,1340,-3040,-78,129
0.01658036,-16072,-2700,1412,-3024,-83,78
0.01658122,-16048,-2704,1128,-3024,-219,151
0.01658142,-16028,-2676,952,-3024,-238,159
0.01658061,-16096,-2652,1780,-3024,-83,-51
0.01658121,-16356,-2704,1484,-3056,-132,505
0.01657963,-16212,-2564,1412,-2992,-141,363
0.01657963,-16004,-2704,1332,-3040,-26,35
0.01658083,-16120,-2712,1280,-3024,-69,55
0.01657983,-16164,-2664,1276,-2976,-154,236
0.01657983,-16124,-2648,1340,-3056,-80,141
0.0165794,-16032,-2536,1444,-2992,-86,181
0.0165843,-16196,-2392,1392,-3024,17,665
0.0165807,-15888,-2880,1364,-3040,-42,168
0.01657819,-16120,-2808,1368,-3008,-72,229
0.01658089,-16092,-2768,1340,-3024,6,-6
0.01658122,-16008,-2816,1260,-2992,-13,70
0.01658122,-16112,-2776,1316,-3008,-41,92
0.01658062,-16144,-2612,1352,-3008,8,-15
0.01658027,-15896,-2680,1392,-3024,-14,140
0.01657893,-16084,-2728,1416,-2992,23,23
0.01657893,-16128,-2800,1548,-3024,-124,379
0.01657974,-16168,-2532,1392,-3008,-63,346
0.01658161,-16060,-2628,1328,-2992,78,217
0.01658255,-16168,-2764,1356,-3008,-26,326
0.01658255,-16156,-2788,1436,-2992,-105,216
0.01657964,-16060,-2724,1380,-3008,-174,92
0.01658104,-16076,-2744,1432,-3024,-153,44
0.01658104,-16124,-2748,1252,-3008,-143,141
0.01658236,-16192,-2656,1296,-3040,-53,201
0.01658174,-16088,-2648,1256,-3008,-44,261
0.01658174,-16108,-2676,1268,-3040,33,313
0.01657907,-16072,-2676,1148,-3008,53,327
0.01657907,-16240,-2952,1076,-3024,-83,477
0.01657916,-16204,-2760,1092,-3024,13,801
0.01658188,-16052,-2576,1164,-3008,-87,1171
0.01658253,-16468,-2668,100,-3008,236,1540
0.0165814,-15940,-2608,1152,-3008,199,1624
0.0165814,-16288,-2840,576,-2992,188,1500
0.01658053,-16080,-2844,900,-3024,100,1237
0.01658137,-15936,-2648,1072,-3040,-68,744
0.01657888,-15908,-2552,976,-3008,-197,282
0.01657888,-16096,-2616,832,-2992,82,-220
0.01658097,-16412,-2336,920,-2976,262,-492
0.01657978,-16416,-2768,1096,-2992,201,-132
0.01657978,-16016,-2628,700,-2992,281,324
0.01658029,-16220,-2708,852,-2992,267,250
0.01658068,-16200,-2824,844,-3008,54,501
0.01658068,-16072,-2836,760,-2992,80,716
0.01658068,-16192,-2528,964,-2992,198,652
0.01658242,-15948,-2344,844,-3008,10,641
0.01658279,-15768,-2432,508,-3008,41,127
0.01658279,-16368,-2716,260,-3008,512,-225
0.01658154,-16256,-2588,1040,-3008,358,-205
0.01658154,-16368,-2616,1192,-3008,-68,-182
0.01657616,-16184,-2604,888,-2992,-240,170
0.01657616,-16392,-2476,460,-3024,65,198
0.01658062,-16184,-2416,872,-2992,137,161
0.01658376,-16176,-2604,572,-3008,103,47
0.01658376,-15896,-2596,904,-3040,330,-10
0.01658092,-15712,-2760,1304,-2976,235,-667
0.01658092,-16128,-2676,1216,-2992,-198,-196
0.01657842,-16408,-2632,904,-3040,-192,-347
0.01658072,-16268,-2620,900,-3008,-135,-305
0.01658072,-16280,-2772,1104,-3024,-29,-103
0.01658283,-16308,-2632,1000,-3008,128,86
0.01658283,-16252,-2432,1116,-3008,155,112
0.0165811,-16020,-2624,1124,-3024,173,69
0.01657651,-16096,-2560,1176,-2992,360,-59
0.01657651,-15884,-2828,1160,-3008,211,47
0.01657559,-16176,-2712,1316,-2976,-17,-76
0.01658222,-16008,-2772,1080,-3008,37,377
0.01658222,-15864,-2760,1168,-3008,-162,118
0.01657926,-16044,-2636,996,-2992,-127,85
0.01658262,-16128,-2768,1312,-2992,-171,82
0.01658262,-16196,-2748,1132,-3024,-203,84
0.01657983,-16124,-2692,964,-3008,-34,136
0.01657716,-16268,-2548,668,-3008,61,350
0.01657777,-15676,-2788,1116,-2976,487,252
0.01657777,-16288,-2772,1244,-3008,109,10
0.01658176,-16216,-2868,1268,-3008,107,262
0.01657995,-16064,-2652,1128,-2992,-120,282
0.01657995,-16068,-2704,1064,-2976,-139,-15
0.01658187,-16180,-2504,912,-3024,6,284
0.01658046,-15932,-2600,1620,-3008,-417,185
0.01658046,-16240,-2548,1220,-2976,-318,38
0.01658266,-16208,-2544,1000,-3008,-177,-21
0.01657961,-16292,-2496,1144,-2992,-116,1
0.01658322,-16144,-2544,1152,-2992,-176,88
0.01658322,-16020,-2568,1116,-3024,10,41
0.0165793,-16076,-2452,1112,-2976,26,25
0.0165793,-16052,-2488,1056,-3008,614,599
0.01658008,-16348,-2444,1488,-3008,-52,80
0.0165788,-16268,-2604,1644,-2992,-115,319
0.0165788,-16372,-2468,984,-3024,-24,550
0.01658197,-16240,-2460,592,-3040,246,849
0.01658197,-15864,-2500,1028,-2992,549,981
0.01657909,-16092,-2536,1200,-3024,170,467
0.0165826,-16044,-2572,1200,-2992,189,161
0.0165826,-15892,-2644,1248,-2992,315,267
0.01609486,-16352,-2444,1180,-3024,24,342
0.01658218,-16340,-2408,1188,-3008,71,475
0.01658218,-16208,-2208,852,-2992,-101,746
0.01656976,-16184,-2204,780,-2944,22,611
0.01657303,-16176,-2380,872,-2992,-49,247
0.01657303,-16196,-2352,812,-2992,10,322
0.01657322,-16284,-2320,1220,-3008,57,261
0.01657044,-16316,-2460,1040,-2992,-11,199
0.01657044,-16264,-2532,956,-2976,-86,243
0.01657085,-16300,-2444,860,-2992,-76,191
0.01657292,-16228,-2460,1096,-2976,-182,330
0.01657636,-16096,-2248,848,-3008,-242,336
0.01657636,-16296,-2384,756,-3008,-147,192
0.01657257,-16208,-2344,696,-3024,-38,282
0.01657071,-16132,-2304,908,-3024,-46,263
0.01657079,-16356,-2468,1108,-3008,109,179
0.01657079,-16168,-2300,1064,-2976,197,436
0.01657023,-16204,-2468,900,-3008,-82,510
0.0165682,-16188,-2256,796,-3008,-42,252
0.01657091,-16296,-2388,896,-2992,36,88
0.01656923,-16356,-2332,1036,-3024,55,111
0.01656923,-16092,-2340,896,-2960,-99,411
0.01656799,-16124,-2460,876,-2976,-70,253
0.01657127,-16184,-2428,812,-2976,-61,279
0.01657532,-16176,-2424,880,-3008,-124,226
0.01657532,-16320,-2408,868,-2992,-85,254
0.01657262,-16120,-2420,832,-2992,-130,285
0.0165714,-16220,-2448,812,-2992,-95,199
0.0165714,-16164,-2348,988,-2976,4,94
0.01657148,-16204,-2452,960,-3024,3,407
0.01656803,-16276,-2432,880,-2992,71,286
0.01657118,-16268,-2540,756,-2976,-13,586
0.01657265,-16192,-2484,760,-2976,115,246
0.01657559,-16084,-2472,748,-3024,106,159
0.01657311,-16280,-2532,792,-2976,108,134
0.01657311,-16276,-2424,888,-2992,-90,402
0.01657251,-16232,-2452,660,-2992,-183,395
0.01657251,-16156,-2408,700,-2976,79,135
0.01656952,-16000,-2612,1152,-2976,-92,188
0.01657199,-16500,-2192,872,-2992,-74,209
0.01657199,-16256,-2396,800,-2992,-2,246
0.01657039,-16036,-2384,796,-2992,19,163
0.01657194,-16080,-2584,632,-2992,-61,189
0.01657161,-16188,-2432,848,-2976,-5,-20
0.01657161,-16292,-2352,892,-2992,-4,166
0.01657644,-16236,-2356,740,-2960,-22,225
0.01657644,-16136,-2432,692,-2976,39,126
0.01657926,-16112,-2436,776,-2976,92,217
0.01657926,-16124,-2444,924,-2976,5,282
0.01657838,-16200,-2396,704,-2944,32,-30
0.01657838,-16180,-2328,860,-2992,-72,94
0.01658844,-16164,-2164,884,-3008,-116,176
0.01657792,-16128,-2540,876,-2992,-127,206
0.01657792,-16200,-2380,736,-2992,-22,123
0.01657993,-16228,-2432,772,-2992,59,89
0.01657993,-16236,-2296,932,-2960,-37,211
0.01658034,-16276,-2464,756,-2992,65,80
0.01657815,-16220,-2468,804,-2992,-34,75
0.01657815,-16248,-2120,820,-2992,-105,301
0.01658234,-16188,-2392,812,-2944,-88,82
0.01658309,-16276,-2336,932,-3008,-159,103
0.01658309,-16144,-2388,796,-2976,-207,381
0.01657955,-16220,-2452,880,-2992,-95,31
0.01658442,-16296,-2308,916,-2992,-245,191
0.01658442,-16216,-2404,644,-3008,-159,188
0.01657836,-16196,-2300,756,-2960,-136,99
0.01657836,-15952,-2428,824,-2992,-67,2
0.01657549,-16380,-2344,784,-2960,-89,65
0.01658476,-16236,-2260,692,-2992,-33,8
0.01658112,-16248,-2256,1036,-2960,-67,131
0.01657965,-16264,-2220,716,-2976,-109,292
0.01657965,-16188,-2280,668,-2960,76,64
0.01657884,-16156,-2280,948,-2960,-27,150
0.01657884,-16220,-2372,848,-2992,-32,284
0.01658017,-16244,-2408,904,-2992,-57,122
0.01658017,-16164,-2332,868,-2960,-177,136
0.01658003,-16132,-2200,812,-2992,-312,301
0.01658003,-16364,-2176,776,-2992,-293,125
0.01657587,-16388,-2016,660,-2992,-243,98
0.01658452,-16228,-2096,764,-2976,-195,199
0.01658452,-16132,-2324,712,-2976,-118,284
0.01657946,-16200,-2232,784,-2992,-20,-39
0.01658013,-16164,-2208,940,-2960,-74,58
0.01658013,-16208,-2368,740,-2944,-159,317
0.01657882,-16276,-2268,740,-2960,-91,-53
0.01657882,-16404,-2272,856,-2992,-186,58
0.01658105,-16360,-2124,800,-2976,-242,216
0.01657858,-16280,-2156,664,-2976,-188,344
0.01657858,-16228,-2152,704,-3008,-53,180
0.01647538,-16152,-2168,744,-2976,-10,169
0.01647538,-16236,-2308,1132,-2976,-102,169
0.0165774,-16308,-2272,968,-2992,-252,343
0.0165774,-16220,-2128,632,-2976,-257,328
0.01657832,-16124,-2192,644,-2960,-66,72
0.01657832,-16144,-2244,924,-2976,110,-115
0.01657752,-16232,-2500,820,-2960,-36,-33
0.01657752,-16468,-2380,764,-2976,-122,116
0.01657733,-16344,-2224,900,-2944,-87,-27
0.016581,-16228,-2424,964,-2960,-178,178
0.01658084,-16144,-2284,756,-2960,-241,318
0.01657924,-16136,-2204,796,-2960,-91,-28
0.01657924,-16212,-2260,816,-2960,-39,-130
0.01658088,-16380,-2332,908,-2992,-121,41
0.01658229,-16248,-2168,816,-2944,-47,143
0.01658229,-16144,-2292,796,-2960,22,-19
0.01658235,-16316,-2232,872,-2976,-48,150
0.01658014,-16136,-2252,976,-2960,-28,196
0.01658014,-16140,-2380,1012,-2976,0,126
0.01657902,-16160,-2424,1032,-2976,-47,-91
0.01658064,-16280,-2272,900,-2960,-127,103
0.01657953,-16268,-2372,920,-2992,-81,85
0.01657953,-16164,-2352,988,-2944,-54,195
0.01657869,-16228,-2344,1016,-2960,-32,124
0.01657932,-16284,-2328,828,-2992,-84,175
0.01658156,-16148,-2260,992,-2976,-60,164
0.01658156,-16096,-2348,956,-3008,-105,226
0.01658007,-16224,-2228,928,-2976,-43,45
0.01657767,-16280,-2444,1036,-2944,-107,47
0.01657767,-16260,-2360,856,-2960,-91,-54
0.0165745,-16372,-2384,980,-2992,-86,99
0.016581,-16168,-2312,988,-2976,-44,258
0.016581,-16060,-2164,1040,-2960,-17,168
0.01657778,-16164,-2412,1004,-2992,-73,78
0.01658065,-16264,-2280,940,-2976,-120,164
0.01658065,-16056,-2380,960,-2960,-66,110
0.01657744,-16288,-2392,1140,-2960,-89,148
0.01657744,-16284,-2320,884,-2960,-54,1
0.016578,-16104,-2164,1040,-2976,4,64
0.01658137,-16128,-2472,872,-2976,-82,232
0.01658076,-16232,-2272,968,-2928,-92,144
0.01657964,-16284,-2300,976,-2960,-124,99
0.01657964,-16240,-2364,1216,-2960,-70,55
0.01658032,-16220,-2460,964,-2960,-106,134
0.01658664,-16228,-2420,924,-2928,-149,253
0.01658664,-16084,-2364,896,-2992,-88,223
0.01657912,-16248,-2400,1016,-2960,-87,195
0.01658075,-16200,-2384,984,-2944,-63,104
0.01658075,-16160,-2492,1244,-2960,-64,112
0.01658106,-16168,-2352,1024,-2992,-191,306
0.01658106,-16132,-2456,948,-2944,-56,99
0.01658385,-16084,-2312,824,-2992,40,48
0.01658206,-16160,-2360,912,-2976,76,63
0.01657978,-16340,-2344,916,-2960,40,84
0.01657958,-16336,-2288,1204,-2960,43,88
0.01658199,-16124,-2356,1220,-2992,-122,295
0.0165784,-16032,-2388,940,-2944,-170,331
0.01658129,-16024,-2472,972,-2992,-104,62
0.01658042,-16344,-2264,952,-2976,-119,75
0.01657869,-16256,-2328,1084,-2976,-155,112
0.01657869,-16192,-2368,936,-2992,-154,131
0.01658,-16160,-2524,864,-2944,-103,-97
0.01657844,-16096,-2324,1148,-2976,-78,-16
0.01657844,-16304,-2300,1176,-2976,-121,129
0.01657775,-16280,-2212,780,-2976,6,178
0.01657775,-16080,-2460,1252,-2960,47,6
0.01657848,-16324,-2332,1128,-2944,-141,183
0.01657848,-16116,-2228,996,-2976,54,-32
0.01657977,-16208,-2352,1192,-2960,-134,207
0.01657405,-16252,-2408,980,-2960,-167,208
0.01657405,-16212,-2272,1072,-2928,-159,78
0.01658024,-16168,-2088,1332,-2960,-146,-63
0.01657785,-16396,-2444,980,-2976,-202,241
0.01658085,-16200,-2388,860,-2976,-130,135
0.01658132,-16276,-2424,1136,-2976,-18,19
0.01658036,-16180,-2352,1216,-2976,-136,299
0.01658036,-16336,-2236,884,-2960,-42,152
0.01657947,-16112,-2300,1024,-2944,-50,179
0.01657733,-16168,-2388,1028,-2960,-58,196
0.01657844,-16296,-2288,904,-2960,-95,232
0.0165755,-16196,-2316,1120,-2992,-68,120
0.0165755,-16240,-2192,1220,-2944,-24,95
0.01658037,-16272,-2396,1140,-2960,-54,190
0.01658133,-16148,-2348,956,-2944,-117,356
0.01658133,-16148,-2252,940,-2960,-76,254
0.01657985,-16228,-2216,980,-2960,-71,221
0.01658071,-16220,-2184,1144,-2944,-161,257
0.01658071,-16216,-2184,1192,-2992,-249,248
0.01657868,-16328,-2348,1244,-2976,-301,358
0.01657928,-16256,-2164,1020,-2960,-293,270
0.01657913,-16044,-2452,1220,-2944,-559,147
0.01657913,-16276,-2384,1304,-2960,-721,430
0.0165771,-16324,-2192,976,-2960,-409,236
0.01657993,-16296,-2292,856,-2976,-168,310
0.01657993,-16216,-2252,1144,-2976,-256,349
0.01657938,-16184,-2196,1060,-2976,-211,211
0.01657933,-16128,-2128,1128,-2928,-203,328
0.01657777,-16136,-2360,964,-2944,-284,351
0.01657871,-15948,-2728,1440,-2944,-707,12
0.01657871,-16092,-2424,896,-2944,-377,345
0.01658009,-16256,-2264,752,-2928,-604,619
0.01658462,-16208,-2364,988,-2944,-604,442
0.01657702,-16160,-2164,956,-2944,-632,441
0.01658025,-16232,-2196,724,-2960,-571,447
0.01657957,-16288,-2216,852,-2944,-500,314
0.01657957,-16332,-2272,872,-2992,-502,277
0.01657783,-16244,-2248,772,-2960,-726,638
0.01657895,-16260,-2408,560,-2960,-642,857
0.01658052,-16324,-2212,436,-2976,-626,1243
0.01658519,-16472,-2148,612,-2960,-685,1633
0.01657702,-16428,-2368,276,-2928,-574,1897
0.01658013,-15980,-2352,32,-2976,-412,1266
0.01658013,-15980,-2256,-56,-2960,-533,730
0.0165797,-16236,-2292,32,-2960,-280,272
0.01657941,-16428,-2116,88,-2928,-448,251
0.0165801,-16264,-2244,276,-2960,-479,200
0.01658391,-16304,-2328,48,-2944,-530,259
0.01658391,-16248,-2284,84,-2960,-436,122
0.0165819,-16256,-2188,304,-2944,-455,141
0.0165819,-16200,-2088,52,-2960,-398,221
0.01657499,-16176,-2312,-8,-2944,-486,72
0.01658003,-16336,-2136,-16,-2960,-327,115
0.01658003,-16220,-2268,84,-2928,-413,172
0.01657812,-16200,-2184,44,-2944,-520,338
0.01657812,-16208,-2248,60,-2960,-538,341
0.01658259,-16212,-2176,-64,-2960,-478,235
0.0165792,-16360,-2056,144,-2960,-354,-174
0.01657957,-16196,-2152,388,-2992,-540,168
0.01657957,-16420,-2160,-176,-2928,-378,151
0.01657718,-16300,-2256,292,-2960,-202,107
0.01658184,-16372,-2168,124,-2928,-349,417
0.01657853,-16240,-2264,28,-2944,-359,307
0.01658104,-16296,-2184,120,-2960,-333,150
0.01649412,-16440,-2196,188,-2944,-297,267
0.01658111,-16332,-2160,-56,-2928,-352,344
0.01658011,-16200,-2200,276,-2928,-473,612
0.01657723,-16360,-2124,-176,-2944,-469,701
0.01657994,-16108,-2044,-264,-2928,-324,495
0.01658085,-16124,-2092,-168,-2944,-81,277
0.01658085,-16280,-1996,-132,-2992,-65,380
0.01658113,-16292,-2184,-188,-2944,-64,300
0.01658133,-16348,-2156,-180,-2944,-104,356
0.01657885,-16324,-2152,64,-2944,-170,218
0.01657824,-16356,-2156,-120,-2944,-329,416
0.01657824,-16252,-2116,-168,-2960,-242,322
0.01657959,-16272,-2048,-96,-2928,-264,345
0.01657704,-16284,-1908,-340,-2944,-275,277
0.01657704,-16204,-2104,-328,-2928,-145,2
0.01658521,-16392,-2076,-92,-2976,-182,-82
0.01658317,-16240,-2060,-224,-2960,-84,-165
0.01657892,-16304,-2088,-24,-2928,-215,100
0.01657892,-16116,-2092,-56,-2944,-179,-66
0.01657924,-16220,-2108,24,-2928,-311,-54
0.01658138,-16156,-2188,-304,-2944,-509,100
0.01658138,-16332,-2076,-108,-2928,-328,18
0.01657899,-16344,-2096,-140,-2960,-244,-17
0.01658365,-16436,-2128,-72,-2960,-120,-24
0.01657711,-16472,-2056,44,-2928,-138,159
0.01658022,-16388,-2048,-64,-2928,-193,389
0.01657958,-16236,-2044,-116,-2944,-67,133
0.01657958,-16208,-2196,-148,-2944,-48,66
0.01658068,-16344,-2092,116,-2928,-107,279
0.01658068,-16220,-2080,-100,-2944,-5,290
0.01658031,-16292,-2080,64,-2928,14,76
0.01658137,-16464,-2088,96,-2960,-14,175
0.01658032,-16360,-2036,-28,-2944,67,542
0.01658032,-16164,-2056,-116,-2944,-176,435
0.01658106,-16156,-2112,-176,-2944,-147,116
0.01658106,-16300,-2064,-224,-2928,-184,123
0.01657906,-16308,-2044,28,-2944,-116,237
0.01657906,-16228,-2060,176,-2944,-138,166
0.01658135,-16300,-2020,12,-2944,-150,299
0.01658135,-16320,-2008,-128,-2944,-125,347
0.0165793,-16312,-2104,-80,-2928,16,56
0.0165817,-16308,-2072,-88,-2928,-115,196
0.01657587,-16332,-2160,-120,-2912,-105,169
0.01658067,-16364,-2108,-80,-2960,-160,281
0.01658218,-16364,-2048,-100,-2928,-237,216
0.01658218,-16440,-2200,-244,-2944,-286,480
0.01657611,-16344,-2100,-208,-2928,-317,827
0.01657611,-16084,-1912,-276,-2944,-255,487
0.01657891,-16128,-2068,-424,-2928,-124,265
0.01657894,-16320,-2124,-168,-2928,-23,166
0.01657894,-16448,-2152,-124,-2944,21,488
0.01657999,-16248,-1976,-456,-2944,119,564
0.01658023,-16208,-2056,-312,-2944,51,396
0.01657651,-16272,-2064,-312,-2896,72,327
0.0165797,-16356,-2044,-260,-2928,-84,494
0.0165797,-16292,-2116,-372,-2928,-182,370
0.01657976,-16344,-2076,-368,-2928,-247,336
0.01657944,-16360,-2108,-372,-2912,-224,222
0.01657944,-16348,-2048,-316,-2928,-213,113
0.01657959,-16284,-1892,-604,-2912,-73,154
0.01657959,-16304,-1756,-516,-2912,72,-41
0.01657805,-16424,-2024,-408,-2944,26,73
0.01657889,-16196,-2020,-340,-2928,9,128
0.01657897,-16252,-2008,-264,-2944,35,-95
0.01658061,-16276,-2100,-300,-2912,-119,-150
0.01658061,-16420,-1916,-496,-2944,-128,-72
0.01657953,-16480,-2008,-248,-2944,-84,-42
0.01657959,-16456,-2028,-304,-2928,-148,118
0.01657958,-16436,-2048,-220,-2928,-280,420
0.01657958,-16304,-1960,-616,-2928,-171,211
0.01657908,-16172,-2016,-252,-2960,-111,115
0.01657977,-16280,-2004,-352,-2912,-133,285
0.01657922,-16284,-2008,-316,-2960,17,66
0.01657922,-16220,-2064,-228,-2960,106,-262
0.01657894,-16676,-2252,-116,-2928,-104,-122
0.01657894,-16200,-1908,-576,-2928,381,435
0.01657848,-16388,-1972,-276,-2928,51,183
0.01658052,-16348,-2164,-152,-2912,-164,286
0.01658052,-16240,-1984,-604,-2912,-180,323
0.01657873,-16248,-2064,-220,-2928,-136,201
0.01657873,-16328,-2084,-4,-2960,-101,176
0.01657549,-16428,-2004,-300,-2944,-107,129
0.01656837,-16336,-2000,-316,-2928,-49,310
0.01656837,-16364,-2116,-324,-2928,-48,440
0.01658035,-16208,-2064,-360,-2912,96,286
0.01658035,-16264,-2068,-404,-2944,52,197
0.01658049,-16276,-2032,-212,-2928,24,133
0.01658049,-16308,-2032,-248,-2944,-32,289
0.01657807,-16248,-2084,-324,-2912,-37,65
0.01658026,-16340,-2016,-312,-2912,-27,-66
0.01658026,-16192,-2060,-380,-2944,-129,177
0.01657974,-16320,-2188,-452,-2912,-22,-14
0.0165806,-16340,-2132,-208,-2928,-163,350
0.0165806,-16264,-1992,-372,-2896,-146,163
0.01658077,-16332,-2040,-264,-2928,-82,51
0.01658077,-16308,-2040,-200,-2912,-131,174
0.01658234,-16184,-1904,-456,-2960,-95,200
0.01658384,-16280,-1960,-384,-2896,-10,2
0.01658384,-16348,-1988,-356,-2896,6,66
0.01657934,-16412,-2104,-164,-2896,109,126
0.0165817,-16284,-2128,-252,-2944,88,87
0.0165817,-16392,-2156,-352,-2944,62,6
0.01657977,-16460,-2120,-208,-2960,43,-5
0.01657977,-16368,-2176,-236,-2896,-102,94
0.01610213,-16168,-2240,-176,-2896,-174,13
0.01657982,-16200,-2096,-384,-2928,-272,87
0.01658113,-16276,-2124,-572,-2960,-189,-40
0.01657159,-16332,-1976,-12,-2912,-105,-6
0.01657159,-16380,-2220,-48,-2896,-93,-53
0.01656917,-16356,-2188,-120,-2928,-60,62
0.01656998,-16216,-2192,-96,-2928,0,-39
0.01657135,-16268,-2176,-48,-2896,-7,30
0.01657135,-16376,-2240,-40,-2912,16,4
0.01657181,-16316,-2072,-12,-2928,-44,178
0.01657451,-16204,-2032,-132,-2896,-44,102
0.01657451,-16436,-2208,28,-2944,-50,61
0.01666803,-16316,-2156,-156,-2896,-112,313
0.01666803,-16400,-2040,-128,-2880,-48,234
0.01656996,-16092,-1988,-24,-2944,-88,245
0.01656996,-16300,-2208,-312,-2928,-82,98
0.01657262,-16328,-2216,-92,-2928,-106,53
0.01657241,-16360,-2216,-88,-2912,-139,168
0.01657241,-16136,-2040,-20,-2928,-121,76
0.01657214,-16368,-2048,76,-2960,-138,-127
0.01657214,-16508,-2084,-244,-2928,-185,-113
0.01657328,-16428,-2288,-108,-2928,-49,-82
0.01657328,-16324,-2332,184,-2928,-150,129
0.01657058,-16368,-2172,-56,-2896,-105,271
0.01657216,-16216,-2008,-48,-2928,-40,-63
0.01657216,-16340,-2044,-68,-2912,-86,-139
0.01657301,-16428,-2072,-144,-2928,-191,103
0.01657137,-16360,-2068,-16,-2928,-160,214
0.01657137,-16224,-1952,-24,-2928,-45,122
0.01657287,-16272,-2144,-56,-2912,67,-178
0.01657277,-16392,-2044,112,-2928,91,-99
0.01657277,-16244,-2228,-72,-2912,-117,-52
0.01657148,-16196,-2176,-260,-2896,-4,-284
0.01657148,-16164,-2136,-36,-2912,64,-696
0.0165751,-16504,-2336,396,-2912,-39,-588
0.01657046,-16284,-2260,212,-2912,-366,163
0.0165743,-16232,-2228,8,-2896,-165,2
0.01657276,-16200,-2116,284,-2912,-83,60
0.0165705,-16280,-2120,248,-2896,-123,73
0.0165705,-16208,-2188,340,-2912,17,62
0.0165737,-16320,-2148,496,-2928,31,87
0.01657402,-16368,-2076,228,-2896,40,262
0.01657402,-16216,-2140,136,-2944,-30,220
0.01658131,-16224,-2256,188,-2928,21,162
0.01657417,-16324,-2348,300,-2912,13,239
0.01657073,-16268,-1952,120,-2912,-36,343
0.01657073,-16212,-2176,176,-2896,26,165
0.01657237,-16300,-2180,196,-2896,-64,292
0.01656995,-16372,-2112,84,-2928,-101,227
0.01656995,-16348,-2144,216,-2912,-82,198
0.01657302,-16164,-1984,244,-2944,-88,226
0.01657253,-16256,-2048,68,-2928,-104,236
0.01657253,-16360,-2028,168,-2896,-33,199
0.01657137,-16276,-2044,60,-2896,7,237
0.01657137,-16220,-2072,228,-2896,2,337
0.01657232,-16176,-2124,48,-2912,20,220
0.01657337,-16224,-2060,188,-2928,-16,221
0.01657388,-16356,-2120,72,-2896,-64,153
0.01657151,-16392,-2008,232,-2928,-105,159
0.01657151,-16304,-2120,364,-2912,-185,349
0.01657255,-16364,-2076,32,-2944,-95,173
0.01657255,-16300,-2124,32,-2928,-78,158
0.01657275,-16348,-2124,172,-2896,-112,251
0.01657275,-16376,-2140,184,-2928,-67,137
0.01657383,-16264,-2040,264,-2928,-91,194
0.01657375,-16248,-2048,88,-2928,-23,188
0.01657375,-16356,-2112,136,-2896,4,89
0.01657645,-16188,-2116,304,-2944,-44,271
0.01657294,-16224,-2116,-16,-2896,-84,304
0.01657294,-16156,-1964,20,-2896,-7,67
0.01657354,-16332,-2084,80,-2912,-122,201
0.01657354,-16268,-2068,172,-2912,-135,212
0.01657544,-16300,-2088,12,-2928,-87,119
0.01657365,-16388,-2144,124,-2928,-113,234
0.01657196,-16192,-2188,-32,-2912,-59,230
0.01657455,-16256,-2108,224,-2896,-76,283
0.01657455,-16304,-2068,168,-2896,-61,232
0.01657707,-16332,-2116,192,-2912,-103,375
0.01657707,-16344,-2144,236,-2896,-125,200
0.01657487,-16284,-2112,200,-2880,-255,326
0.01657348,-16332,-2152,208,-2880,-275,364
0.01657313,-16216,-2172,-52,-2928,-157,332
0.01657377,-16260,-2120,-32,-2896,-202,467
0.01657377,-16112,-2268,-36,-2944,-105,427
0.01657111,-16416,-2084,64,-2880,-264,842
0.01657111,-16252,-2160,20,-2896,-175,545
0.01657433,-16184,-2024,-8,-2896,-46,372
0.01657433,-16256,-2128,-116,-2912,-8,352
0.01657354,-16348,-2164,-128,-2896,-17,355
0.01660981,-16280,-2224,-180,-2928,-22,311
0.01657168,-16268,-2216,-256,-2912,-46,320
0.01657168,-16184,-2164,-208,-2896,85,126
0.01660394,-16172,-2140,-172,-2896,129,88
0.01657457,-16212,-2132,-180,-2880,173,142
0.01657457,-16456,-2112,-248,-2912,148,369
0.01657411,-16168,-2164,-272,-2896,94,452
0.01657411,-16276,-2148,-156,-2896,-62,684
0.01655782,-16212,-2164,-484,-2896,152,567
0.01658569,-16280,-2168,-320,-2928,191,302
0.01657369,-16264,-2240,-404,-2928,236,442
0.01657369,-16448,-2220,-80,-2896,127,584
0.01657208,-16316,-2068,-104,-2896,92,708
0.01657079,-16328,-2004,8,-2928,79,296
0.01657638,-16256,-1868,128,-2896,-31,282
0.01656889,-16460,-2056,-348,-2912,7,69
0.01656889,-16348,-2140,-504,-2928,38,170
0.01657394,-16296,-2156,-420,-2896,49,182
0.01657218,-16204,-2124,-356,-2880,4,104
0.01657218,-16380,-2036,-272,-2912,-69,180
0.01657544,-16304,-2160,-360,-2896,-1,85
0.01657544,-16300,-2016,-312,-2896,-220,361
0.01657282,-16376,-1932,-476,-2896,-311,618
0.01657534,-16388,-2088,-344,-2896,-171,728
0.01657126,-16228,-2032,-400,-2896,-226,929
0.0165734,-16376,-1868,-364,-2912,-288,676
0.0165734,-16284,-1964,-516,-2896,-219,242
0.01657373,-16376,-1960,-196,-2928,-216,160
0.01657348,-16252,-1968,-664,-2880,-198,48
0.01657348,-16332,-2100,-508,-2896,-161,-34
0.01657241,-16252,-1964,-504,-2912,-392,302
0.01657241,-16296,-2016,-616,-2880,-181,52
0.01656744,-16328,-1984,-324,-2880,-173,7
0.01657399,-16156,-1868,-432,-2944,29,-17
0.01657399,-16408,-1712,-384,-2928,30,-93
0.01657595,-16428,-1848,-592,-2944,75,-492
0.01657562,-16368,-1860,-432,-2896,15,-915
0.01657562,-16564,-1960,-104,-2896,18,-585
0.01657444,-16584,-1960,-240,-2896,204,-312
0.01657739,-16512,-1732,-356,-2896,104,-164
0.01657621,-16464,-1852,-340,-2880,123,-90
0.016573,-16268,-1932,4,-2912,34,62
0.01657498,-16396,-1996,-300,-2880,21,-224
0.01657498,-16404,-1892,-208,-2896,34,-154
0.01657433,-16456,-2032,-152,-2928,208,-178
0.0165732,-16304,-1904,64,-2880,-22,-6
0.0165752,-16276,-2000,-16,-2912,-5,-13
0.01657246,-16224,-1916,248,-2880,-137,-136
0.01657262,-16340,-1844,-76,-2896,-23,-372
0.01657333,-16244,-1692,-88,-2896,89,-392
0.01657333,-16496,-1804,-80,-2896,247,-263
0.01657299,-16408,-1892,36,-2896,237,-36
0.01657299,-16556,-1908,92,-2864,299,134
0.01657299,-16296,-1944,312,-2912,260,11
0.01657541,-16336,-1976,-12,-2896,133,130
0.01657287,-16124,-2068,-8,-2880,145,-101
0.01657287,-16284,-1740,224,-2880,138,-257
0.0165742,-16404,-1908,224,-2880,101,5
0.0165742,-16088,-1820,220,-2880,63,4
0.01657486,-16332,-1808,84,-2896,55,69
0.01657337,-16240,-1840,132,-2880,91,-47
0.01657337,-16396,-1820,396,-2896,88,-136
0.01657586,-16344,-1832,212,-2848,51,-72
0.01657586,-16440,-1972,64,-2896,121,-231
0.0165727,-16424,-1816,396,-2880,141,-160
0.01693759,-16296,-1796,388,-2896,76,-167
0.01693759,-16312,-1748,156,-2896,63,-138
0.01657493,-16424,-1840,316,-2880,167,-323
0.01657493,-16284,-1672,584,-2896,-28,97
0.01657636,-16388,-1724,480,-2912,7,60
0.01657408,-16324,-1600,344,-2880,53,-38
0.01657408,-16232,-1696,352,-2896,107,-52
0.0165775,-16364,-1732,416,-2896,146,-73
0.01657775,-16348,-1652,404,-2880,226,-11
0.01657775,-16452,-1612,412,-2912,352,57
0.0165755,-16460,-1784,588,-2880,58,355
0.0165755,-16216,-1776,472,-2880,200,122
0.01657744,-16324,-1744,612,-2880,178,-77
0.0165752,-16512,-1692,528,-2912,-1,148
0.01657096,-16392,-1688,368,-2896,-52,251
0.0165783,-16240,-1724,380,-2912,-63,428
0.01657777,-16284,-1724,564,-2864,-15,293
0.01657644,-16272,-1468,656,-2912,-53,296
0.01657644,-16348,-1488,316,-2848,54,-159
0.01657875,-16296,-1480,568,-2880,6,-285
0.0165757,-16348,-1748,536,-2896,-339,373
0.01657672,-16176,-1604,420,-2896,-445,317
0.01657888,-16256,-1588,336,-2880,-272,-28
0.01657362,-16420,-1604,396,-2880,-160,4
0.01657843,-16416,-1608,396,-2944,-241,266
0.01657422,-16452,-1504,388,-2864,-119,274
0.01657422,-16624,-1632,504,-2880,-209,547
0.01657512,-16528,-1892,832,-2880,-547,1429
0.01657512,-16632,-1516,692,-2864,-346,1727
0.01657487,-16076,-1284,-136,-2896,-275,1254
0.01657803,-16168,-1156,108,-2912,354,99
0.01657649,-16128,-1432,104,-2912,374,-258
0.01658117,-16468,-1500,352,-2896,403,-331
0.01657508,-16668,-1460,480,-2912,405,-52
0.01657508,-16428,-1524,188,-2896,232,372
0.01657472,-16244,-1488,344,-2912,217,312
0.01657411,-16432,-1636,404,-2896,81,193
0.01657411,-16408,-1468,384,-2880,-144,249
0.01657775,-16332,-1488,224,-2912,-90,290
0.01657775,-16348,-1496,380,-2896,-73,1
0.01657773,-16688,-1404,512,-2880,-167,254
0.01656884,-16364,-1328,292,-2880,-250,331
0.0165763,-16328,-1292,140,-2864,-130,248
0.0165763,-16316,-1556,208,-2864,-102,232
0.01657996,-16352,-1252,256,-2864,-111,314
0.01657696,-16368,-1364,284,-2896,-38,302
0.01657651,-16352,-1460,92,-2896,12,236
0.01657651,-16304,-1348,232,-2880,85,218
0.01657759,-16444,-1316,348,-2880,108,249
0.01657759,-16456,-1484,56,-2848,101,299
0.01657651,-16528,-1344,248,-2880,97,305
0.01657651,-16376,-1428,112,-2896,19,291
0.01657596,-16376,-1520,212,-2880,0,297
0.01657426,-16436,-1488,240,-2864,-102,367
0.01657426,-16336,-1468,-12,-2880,-98,282
0.01657701,-16304,-1512,132,-2880,-108,142
0.01657701,-16332,-1508,136,-2880,-155,215
0.01657531,-16288,-1532,0,-2896,-79,110
0.01657587,-16432,-1424,236,-2880,-105,208
0.01657587,-16388,-1516,152,-2880,-153,257
0.01657915,-16468,-1656,256,-2896,-120,206
0.01657915,-16380,-1500,44,-2896,-192,345
0.0165769,-16248,-1480,-48,-2880,-178,73
0.0165743,-16312,-1504,192,-2880,-164,159
0.0165743,-16484,-1564,164,-2880,-109,-52
0.01658061,-16468,-1528,156,-2880,-147,220
0.01658061,-16196,-1516,224,-2880,-106,299
0.01657773,-16108,-1500,-72,-2864,-99,113
0.01657548,-16444,-1652,-72,-2880,-170,161
0.01657676,-16516,-1604,48,-2864,-27,146
0.01657676,-16388,-1608,148,-2896,-170,354
0.01657442,-16360,-1508,180,-2880,-37,205
0.01657442,-16348,-1484,124,-2880,15,81
0.01657766,-16284,-1504,32,-2864,-25,146
0.01657254,-16308,-1528,36,-2896,-107,197
0.0165785,-16448,-1464,40,-2896,-65,184
0.01657657,-16288,-1560,-44,-2864,-64,65
0.01657739,-16384,-1572,164,-2880,-161,127
0.01657604,-16372,-1532,148,-2864,-199,288
0.01657843,-16288,-1488,-72,-2896,-84,139
0.01657616,-16236,-1580,136,-2896,-103,26
0.01657616,-16260,-1652,140,-2864,-145,112
0.01657509,-16404,-1528,-8,-2880,-216,152
0.01657509,-16372,-1436,152,-2864,-263,180
0.01657862,-16384,-1536,-16,-2928,-261,209
0.01657486,-16268,-1540,216,-2880,-131,93
0.01657486,-16468,-1576,-80,-2864,-135,181
0.01657715,-16460,-1632,208,-2880,-40,189
0.01657715,-16400,-1592,-16,-2864,-58,225
0.01657709,-16324,-1404,-40,-2880,34,98
0.01657098,-16380,-1716,0,-2880,113,109
0.01657098,-16584,-1452,152,-2880,81,303
0.01657678,-16312,-1468,36,-2864,86,311
0.01657678,-16256,-1600,184,-2864,16,288
0.01657748,-16264,-1460,24,-2880,-31,198
0.01657641,-16500,-1516,20,-2912,-12,99
0.01657641,-16304,-1548,76,-2880,-69,212
0.01657587,-16380,-1556,64,-2864,-44,233
0.01657587,-16408,-1456,124,-2864,-132,379
0.01657807,-16432,-1384,-112,-2880,-19,267
0.01657799,-16292,-1536,132,-2896,-146,322
0.01657799,-16408,-1532,-108,-2912,-136,161
0.01657646,-16332,-1540,-16,-2848,-23,20
0.01657597,-16424,-1628,-40,-2864,-110,242
0.01657618,-16288,-1576,64,-2864,-47,260
0.01658063,-16452,-1488,-12,-2880,36,150
0.01658063,-16472,-1568,32,-2864,24,275
0.01657805,-16388,-1592,-52,-2864,-30,398
0.01657681,-16288,-1672,-172,-2848,-77,446
0.01657696,-16216,-1612,32,-2864,-76,185
0.01657696,-16288,-1644,-168,-2880,-221,223
0.01657682,-16356,-1540,-172,-2880,-222,132
0.01657682,-16404,-1548,-12,-2864,-138,68
0.01657701,-16316,-1408,8,-2864,-152,171
0.01657752,-16380,-1588,-80,-2880,-40,206
0.01657752,-16284,-1604,24,-2848,17,190
0.01657834,-16312,-1752,4,-2896,-21,108
0.01657834,-16312,-1712,76,-2880,-72,183
0.01657713,-16480,-1640,-8,-2880,-44,13
0.01657174,-16616,-1596,-12,-2864,-162,117
0.01657174,-16236,-1524,-152,-2880,-80,218
0.01657858,-16348,-1688,-76,-2896,-130,216
0.01657858,-16388,-1516,-180,-2880,-100,94
0.01657268,-16484,-1488,100,-2832,-30,134
0.01657927,-16420,-1536,36,-2848,-120,291
0.01657692,-16216,-1608,-192,-2880,-66,90
0.01657655,-16416,-1520,88,-2880,-41,73
0.01657767,-16200,-1656,-68,-2896,-83,279
0.0165769,-16388,-1704,-76,-2896,-103,160
0.01658026,-16396,-1576,-28,-2896,-96,104
0.01657733,-16424,-1728,-24,-2864,-108,126
0.01657733,-16360,-1652,44,-2848,-114,124
0.0165791,-16440,-1600,-20,-2864,-168,239
0.01657423,-16292,-1520,72,-2880,-83,90
0.01657423,-16428,-1596,-64,-2880,24,29
0.01657536,-16344,-1672,40,-2848,-28,171
0.01657704,-16356,-1596,164,-2880,-54,161
0.01660479,-16320,-1632,148,-2848,-15,226
0.01660479,-16368,-1512,20,-2880,-26,141
0.01657435,-16320,-1604,-40,-2880,-106,119
0.01657435,-16440,-1648,-72,-2864,-123,141
0.01657668,-16316,-1636,92,-2896,-116,103
0.01657279,-16440,-1680,132,-2864,-200,213
0.01657279,-16384,-1616,-20,-2864,-196,221
0.01657778,-16352,-1652,-52,-2864,-97,72
0.01657778,-16252,-1608,-116,-2864,-22,127
0.01657621,-16552,-1640,60,-2832,-55,72
0.0165754,-16620,-1680,0,-2864,-7,164
0.01657311,-16276,-1488,92,-2880,-11,242
0.01657037,-16160,-1592,-4,-2896,-84,234
0.01657677,-16472,-1668,-88,-2848,-47,96
0.01657677,-16392,-1616,52,-2832,-93,188
0.01657788,-16308,-1524,184,-2864,-132,281
0.01657622,-16344,-1604,184,-2832,-144,176
0.01657645,-16280,-1564,-28,-2880,-104,139
0.01657743,-16272,-1636,-120,-2832,-111,221
0.01657669,-16432,-1556,116,-2848,-179,232
0.01657718,-16276,-1564,76,-2864,-108,235
0.01657649,-16208,-1728,0,-2864,-95,168
0.016573,-16344,-1732,68,-2864,-194,131
0.01658034,-16496,-1492,-4,-2880,-180,321
0.01658027,-16284,-1628,-32,-2864,31,260
0.01658027,-16128,-1588,92,-2848,72,101
0.0165787,-16412,-1688,40,-2848,29,141
0.0165787,-16356,-1700,76,-2848,-39,133
0.0165148,-16324,-1716,-136,-2864,-105,171
0.01657682,-16288,-1636,72,-2864,-142,137
0.01657804,-16528,-1676,60,-2832,-127,67
0.0165762,-16292,-1632,-20,-2848,-160,120
0.01657671,-16280,-1616,-16,-2864,-95,85
0.01657564,-16404,-1660,-20,-2864,-138,147
0.01657564,-16236,-1636,44,-2864,-123,177
0.01657667,-16428,-1540,-52,-2896,-53,5
0.01657492,-16408,-1572,56,-2848,-14,171
0.01657492,-16136,-1776,-72,-2864,-70,170
0.01657742,-16472,-1568,100,-2848,-15,80
0.01657742,-16448,-1536,160,-2832,-92,250
0.0165766,-16232,-1512,104,-2832,-127,380
0.01657641,-16132,-1528,-88,-2864,-165,253
0.01657641,-16164,-1528,-76,-2848,-140,160
0.01657766,-16440,-1500,36,-2848,-159,152
0.01659042,-16540,-1688,-152,-2880,-225,269
0.01659042,-16484,-1556,56,-2880,-218,392
0.01657622,-16380,-1668,-12,-2848,-219,327
0.01657679,-16348,-1592,12,-2832,-277,377
0.01657679,-16276,-1600,-260,-2848,-362,493
0.01657927,-16504,-1656,20,-2864,-344,468
0.01657717,-16252,-1592,-296,-2864,-201,252
0.01657823,-16280,-1600,-64,-2864,-163,192
0.01958085,-16360,-1664,-72,-2832,-265,422
0.01657727,-16296,-1592,-200,-2848,-219,437
0.01657727,-16316,-1692,-280,-2848,-226,473
0.0179049,-16364,-1700,-152,-2864,-166,313
0.0179049,-16444,-1632,-256,-2864,-203,478
0.0165784,-16252,-1668,-292,-2816,-130,470
0.0165784,-16288,-1812,-288,-2832,-23,238
0.01657851,-16432,-1592,24,-2864,-264,235
0.01657929,-16436,-1548,-428,-2832,-301,472
0.01657929,-16252,-1528,-404,-2864,-152,281
0.01657733,-16304,-1716,20,-2864,-143,416
0.0165769,-16372,-1772,-324,-2848,-265,517
0.0165769,-16248,-1688,-520,-2880,-152,482
0.01657663,-16448,-1800,-536,-2864,181,18
0.01657663,-16396,-1584,132,-2848,-111,346
0.01657571,-16348,-1628,-212,-2848,-377,627
0.01657833,-16296,-1592,-212,-2864,-335,361
0.01657756,-16416,-1488,-464,-2832,-313,293
0.01657676,-16380,-1592,-456,-2848,-358,330
0.01657861,-16744,-1612,-288,-2848,-641,967
0.01657646,-16348,-1656,-432,-2864,-1202,1623
0.01657646,-16500,-1396,-1036,-2864,-775,1563
0.01657921,-16120,-1512,-1024,-2864,-499,1116
0.01657688,-16308,-1540,-1204,-2864,-396,794
0.01657688,-16456,-1784,-888,-2880,-418,452
0.01657856,-16276,-1848,-748,-2864,-488,432
0.01657687,-16288,-1912,-760,-2832,-507,721
0.01657845,-16280,-1972,-952,-2816,-649,926
0.01657686,-16476,-1800,-1000,-2832,-595,733
0.01657686,-16256,-1896,-1080,-2832,-532,585
0.0165777,-16416,-1816,-1104,-2832,-492,516
0.0165777,-16116,-1692,-1188,-2848,-512,775
0.01657808,-16116,-1724,-1612,-2848,-421,776
0.0165799,-16300,-1824,-1372,-2848,-315,409
0.01657459,-15976,-1940,-1244,-2864,-286,361
0.01657937,-16192,-1876,-1224,-2848,-351,693
0.01657688,-16372,-1828,-1192,-2864,-219,695
0.01657598,-16348,-1856,-1224,-2848,-274,499
0.01657763,-16244,-1888,-1324,-2848,-244,224
0.01657763,-16328,-1820,-1308,-2880,-242,229
0.01657776,-16268,-1860,-1372,-2864,-189,880
0.01657835,-16496,-1976,-1476,-2848,-168,332
0.01657596,-16308,-1984,-1276,-2832,-328,372
0.01657622,-16244,-1892,-1560,-2848,-483,160
0.01657975,-16268,-1840,-1560,-2864,-549,142
0.01657615,-16364,-1820,-1408,-2864,-287,69
0.01657615,-16300,-1788,-1312,-2848,-223,202
0.01657806,-16316,-1804,-1420,-2848,-387,420
0.01657945,-16256,-1792,-1576,-2848,-224,296
0.01657835,-16284,-1812,-1552,-2832,-207,158
0.01657835,-16328,-1876,-1344,-2848,-190,212
0.0165795,-16308,-1920,-1436,-2864,-216,366
0.0165795,-16232,-1948,-1416,-2832,-169,287
0.01657816,-16368,-1972,-1508,-2848,22,165
0.01657798,-16256,-1988,-1372,-2864,-110,372
0.01657798,-16332,-1964,-1528,-2832,-139,489
0.01657749,-16364,-1764,-1700,-2832,-147,435
0.01657717,-16304,-1944,-1760,-2880,-15,218
0.01657717,-16316,-1864,-1624,-2832,-125,381
0.01657648,-16276,-1880,-1668,-2848,-211,330
0.01682554,-16200,-1792,-1808,-2832,-170,338
0.0165777,-16156,-1788,-1564,-2848,-153,283
0.0165777,-16048,-1636,-1544,-2848,-429,249
0.01657298,-16372,-1832,-1932,-2848,-684,-3
0.01657375,-16476,-1780,-1540,-2864,-316,307
0.01657453,-16192,-1760,-1648,-2848,7,210
0.01657846,-16308,-1836,-1668,-2816,-44,119
0.01657808,-16260,-1740,-1736,-2800,23,-145
0.01657815,-16276,-2088,-1496,-2832,-80,-127
0.01657815,-16488,-1908,-1640,-2832,-76,403
0.01657802,-16232,-1864,-1696,-2832,-41,568
0.01657802,-16252,-1772,-1648,-2816,-119,296
0.01657779,-16288,-1852,-1804,-2832,-18,196
0.01657779,-16252,-1800,-1512,-2848,-40,316
0.01657738,-16212,-1804,-1548,-2864,85,369
0.01657584,-16216,-1804,-1712,-2864,-42,343
0.01657584,-16156,-1708,-1696,-2848,20,226
0.01657568,-16228,-1896,-1840,-2832,15,291
0.01657568,-16248,-1764,-1688,-2816,40,439
0.01657794,-16316,-1820,-1712,-2832,-196,246
0.01657732,-16324,-1692,-1928,-2864,-60,184
0.01657732,-16200,-1820,-1996,-2848,-63,-16
0.01657483,-16052,-2148,-1468,-2816,-201,74
0.01657483,-16596,-1620,-1528,-2848,-883,1230
0.01657847,-16380,-1396,-2092,-2864,-353,834
0.01657576,-16180,-1416,-2352,-2816,159,38
0.01657576,-16372,-1532,-1844,-2848,244,-356
0.01657373,-16516,-1604,-1760,-2848,247,300
0.01657774,-16376,-1656,-1952,-2848,69,561
0.01657774,-16208,-1532,-2156,-2816,129,391
0.01657544,-16152,-1656,-1848,-2848,146,-17
0.01657818,-16376,-1628,-1612,-2832,-79,262
0.01657817,-16264,-1572,-2012,-2832,-87,410
0.0165782,-16192,-1660,-2088,-2864,13,235
0.0165782,-16308,-1656,-1848,-2832,-160,301
0.0165758,-16244,-1736,-1972,-2832,-74,131
0.01658025,-16376,-1732,-1864,-2816,-157,254
0.01658025,-16316,-1668,-1948,-2832,-71,277
0.01657858,-16308,-1672,-1888,-2832,-95,266
0.01657858,-16196,-1664,-2048,-2800,-96,217
0.01657633,-16124,-1732,-1912,-2832,-107,113
0.01657736,-16220,-1656,-2060,-2800,-80,89
0.01657825,-16384,-1644,-1828,-2848,36,20
0.01657818,-16408,-1660,-2056,-2800,-57,273
0.01657654,-16268,-1712,-1980,-2800,33,390
0.01657886,-16256,-1752,-1864,-2848,9,269
0.01657886,-16196,-1700,-2012,-2832,28,65
0.01657886,-16300,-1644,-1908,-2832,-16,91
0.01657672,-16264,-1744,-1844,-2816,-61,202
0.0165761,-16312,-1756,-1708,-2864,-83,194
0.0165761,-16244,-1684,-1852,-2832,-78,213
0.01657859,-16388,-1584,-2032,-2816,-29,200
0.01657097,-16264,-1716,-1932,-2832,-30,221
0.01658618,-16196,-1756,-1908,-2832,-42,149
0.01658072,-16304,-1680,-1904,-2864,-69,114
0.01657563,-16300,-1556,-2004,-2832,-69,176
0.01657563,-16248,-1656,-1944,-2848,-107,85
0.01657791,-16280,-1628,-2100,-2832,-100,-19
0.01657646,-16288,-1712,-2044,-2816,-71,87
0.01657624,-16232,-1820,-1928,-2816,10,-121
0.01657882,-16424,-1752,-1656,-2864,-169,11
0.01657882,-16348,-1632,-2008,-2848,-204,320
0.01657432,-16272,-1712,-1912,-2800,-121,1
0.01657672,-16252,-1780,-1864,-2800,-82,24
0.01657672,-16392,-1992,-1784,-2800,-69,97
0.01657696,-16320,-1760,-1740,-2816,-161,161
0.01658029,-16344,-1792,-1920,-2816,-33,105
0.01657921,-16328,-1824,-1720,-2816,-79,289
0.01658083,-16152,-1760,-1924,-2832,-107,282
0.01658083,-16248,-1776,-1936,-2832,-76,185
0.01657621,-16248,-1716,-1872,-2832,32,58
0.01657621,-16500,-1720,-1916,-2832,-20,186
0.0165773,-16280,-1876,-1860,-2832,-102,346
0.0165765,-16248,-1848,-1952,-2816,-83,140
0.0165765,-16360,-1712,-1696,-2848,-90,170
0.01658156,-16260,-1768,-1984,-2816,-102,199
0.01657463,-16236,-1688,-2004,-2832,-132,59
0.01657905,-16308,-1740,-1828,-2800,-241,222
0.0165809,-16256,-1692,-1820,-2784,-284,341
0.0165809,-16240,-1672,-1836,-2816,-209,141
0.01657657,-16264,-1668,-1952,-2832,-91,72
0.01657657,-16396,-1716,-2140,-2832,-113,164
0.01657745,-16272,-1728,-1956,-2816,21,109
0.01657484,-16200,-1744,-1800,-2784,116,-188
0.01657484,-16420,-1732,-1616,-2832,-11,109
0.01657739,-16424,-1716,-2128,-2848,-178,293
0.01657739,-16132,-1640,-1856,-2816,-76,108
0.01657777,-16096,-1664,-1820,-2800,-112,167
0.01657846,-16372,-1704,-1880,-2800,-122,169
0.01657846,-16228,-1680,-1968,-2800,-120,204
0.01657375,-16272,-1604,-1924,-2848,-97,186
0.01658002,-16284,-1852,-1760,-2832,-6,54
0.0165784,-16384,-1660,-1676,-2832,-90,199
0.0165772,-16196,-1796,-2004,-2800,23,215
0.0165772,-16288,-1704,-1780,-2864,92,-93
0.01657703,-16380,-1660,-1920,-2816,-3,55
0.01657742,-16216,-1828,-1824,-2832,36,69
0.01657742,-16380,-1700,-1800,-2816,-12,-111
0.01657991,-16552,-1700,-1688,-2832,-22,153
0.01657715,-16452,-1736,-1956,-2848,-71,263
0.01657734,-16184,-1684,-1872,-2848,-74,179
0.01658079,-16252,-1676,-1820,-2816,-52,58
0.01658079,-16236,-1676,-1880,-2832,-94,179
0.01657979,-16236,-1616,-1716,-2832,-185,308
0.0165757,-16148,-1680,-1764,-2816,-127,136
0.0165757,-16208,-1780,-1868,-2816,-51,94
0.01657724,-16312,-1816,-1700,-2832,-63,11
0.01657724,-16236,-1724,-1776,-2800,-161,221
0.01657832,-16172,-1660,-2000,-2832,-124,-122
0.01657832,-16564,-1716,-1904,-2832,-170,-125
0.01657623,-16284,-1832,-1852,-2800,-137,-104
0.01657623,-16468,-1636,-1488,-2784,-39,224
0.01657594,-16392,-1676,-1580,-2816,-150,325
0.01658588,-16232,-1576,-1784,-2800,-168,287
0.01656979,-16228,-1712,-1692,-2800,-115,-3
0.01657935,-16116,-1836,-1628,-2832,-198,177
0.01657935,-16304,-1696,-1588,-2816,-61,162
0.01657681,-16140,-1748,-1788,-2816,34,164
0.01657822,-16292,-1800,-1844,-2816,-42,222
0.01657822,-16276,-1880,-1800,-2832,-106,245
0.01657827,-16376,-1720,-1780,-2800,-175,521
0.01657827,-16252,-1680,-1824,-2832,-98,451
0.01657744,-16128,-1700,-1816,-2800,67,-98
0.01657744,-16416,-1820,-1672,-2832,-78,181
0.01657552,-16288,-1784,-1948,-2864,-80,55
0.01658347,-16448,-1780,-1752,-2816,-81,89
0.01658347,-16464,-1876,-1772,-2816,-219,371
0.01657252,-16072,-1824,-1872,-2800,-181,275
0.01657252,-15988,-1844,-1908,-2832,-121,64
0.01657733,-16132,-1832,-1704,-2816,116,-401
0.01694668,-16512,-1872,-1376,-2800,-272,-187
0.01694668,-16624,-1668,-1804,-2816,-388,-89
0.0165773,-16440,-1812,-1684,-2832,-325,-299
0.0165773,-16180,-2056,-1848,-2800,-117,207
0.0165854,-16120,-1812,-2092,-2816,144,151
0.0165798,-16348,-1660,-1688,-2800,214,58
0.0165798,-16400,-1636,-1688,-2816,111,331
0.01658331,-16100,-1668,-1660,-2848,61,185
0.01658612,-16228,-1824,-1520,-2816,82,73
0.01658515,-16212,-1916,-1576,-2800,74,-173
0.01658748,-16460,-1976,-1708,-2816,0,1
0.01658288,-16220,-2016,-1640,-2800,-4,232
0.01658288,-16244,-2008,-1692,-2800,47,114
0.01658594,-16176,-1792,-1676,-2784,37,221
0.01658559,-16212,-1996,-1720,-2816,52,122
0.01658577,-16476,-1924,-1424,-2800,-29,131
0.01653363,-16448,-1932,-1480,-2832,-88,377
0.01658829,-16364,-1884,-1548,-2800,29,187
0.01658488,-16108,-1804,-1720,-2816,-22,304
0.01658488,-16192,-1956,-1912,-2848,101,-233
0.01658527,-16440,-1912,-1536,-2832,-62,101
0.01658527,-16280,-1856,-1760,-2832,-8,222
0.0165863,-16368,-1944,-1456,-2800,-87,94
0.0165852,-16304,-2088,-1580,-2832,-314,438
0.01658194,-15980,-1960,-2056,-2784,-186,152
0.01658926,-16252,-2056,-1628,-2800,-69,-201
0.01661134,-16296,-1988,-1696,-2800,-189,234
0.01661134,-16204,-1944,-1576,-2784,-238,371
0.01658594,-16240,-1972,-1872,-2832,-162,-12
0.01658434,-16364,-1968,-1908,-2816,-121,-79
0.01658576,-16264,-1896,-1516,-2800,-94,291
0.01658576,-16272,-1940,-1652,-2800,-32,64
0.01658531,-16308,-1976,-1768,-2800,29,-53
0.01658645,-16188,-1912,-1704,-2832,-29,172
0.01658645,-16388,-1976,-1800,-2832,9,153
0.01658,-16060,-1868,-1492,-2832,88,52
0.01658607,-16212,-1956,-1852,-2800,65,-43
0.01658607,-16168,-2056,-1804,-2832,42,-146
0.01658525,-16228,-1996,-1812,-2832,-32,162
0.01657565,-16172,-1960,-1620,-2816,-105,475
0.01657565,-16240,-1928,-1808,-2800,-41,522
0.01658459,-16068,-2024,-1872,-2816,-56,280
0.01658497,-16072,-1976,-1852,-2784,-22,252
0.01658497,-16140,-2084,-1976,-2832,120,-119
0.01658528,-16440,-1872,-1284,-2784,118,-24
0.01658669,-16404,-1836,-1268,-2816,-310,130
0.01658669,-16352,-1812,-1620,-2816,-296,-190
0.01658607,-16140,-1740,-1444,-2784,-354,-526
0.01658363,-16324,-1936,-1468,-2800,-515,-518
0.01658738,-16268,-1988,-1328,-2800,-509,-546
0.01658453,-16416,-1948,-1248,-2816,-337,-583
0.01658453,-16300,-1832,-1384,-2768,-342,-603
0.01658525,-16392,-1708,-1196,-2816,-311,-601
0.01658482,-16328,-1896,-1272,-2784,-212,-475
0.01658482,-16228,-1936,-1344,-2784,-88,-413
0.01657991,-16268,-1912,-1376,-2768,297,-353
0.01658494,-16252,-1776,-1236,-2816,477,-459
0.01658494,-16368,-1740,-1104,-2784,604,-412
0.01658373,-16516,-1792,-604,-2832,424,-426
0.01658597,-16468,-1776,-848,-2800,163,70
0.01658478,-15772,-1648,-1216,-2816,431,-767
0.01658363,-16276,-1780,-880,-2832,527,-599
0.01658363,-16264,-1780,-968,-2800,439,-642
0.01658624,-16284,-1872,-948,-2800,406,-465
0.01658624,-16476,-1828,-604,-2752,170,-432
0.01658434,-16320,-2156,-600,-2832,-96,-374
0.01658434,-16348,-1912,-652,-2784,-387,-1
0.01658347,-16096,-1900,-924,-2800,-70,-79
0.01658347,-16164,-1840,-664,-2800,218,-570
0.01658373,-16288,-1720,-36,-2816,226,-918
0.0165874,-16656,-1712,-436,-2816,98,-449
0.016585,-16620,-1808,-396,-2768,201,-458
0.016585,-16500,-1760,-88,-2800,246,-372
0.01658482,-16372,-1872,-408,-2800,63,-82
0.01658483,-16404,-1808,-324,-2816,108,-41
0.01658483,-16192,-1868,-468,-2816,227,-76
0.01658506,-16392,-1868,-328,-2784,364,-179
0.01658506,-16268,-1780,-188,-2768,449,-146
0.01658496,-16360,-1916,-384,-2816,536,-166
0.01659145,-16344,-2024,-184,-2784,499,29
0.01659145,-16332,-2088,-72,-2816,347,75
0.01658903,-16288,-2076,-152,-2768,294,56
0.01659103,-16152,-2056,-400,-2816,309,-97
0.01659103,-16256,-2036,-92,-2768,330,-272
0.01659083,-16368,-2100,-60,-2768,204,-145
0.01659078,-16368,-1980,-72,-2784,106,-54
0.01659078,-16332,-1912,120,-2832,-102,82
0.0165916,-16276,-1860,76,-2800,-120,9
0.01659236,-16404,-1804,-144,-2800,-57,-184
0.01659236,-16552,-1728,-104,-2800,132,-370
0.01659008,-16356,-1904,4,-2784,221,-488
0.01658914,-16108,-1784,236,-2800,187,-447
0.01659054,-16216,-1768,388,-2784,-101,18
0.01658932,-16224,-1712,8,-2784,83,6
0.01658932,-16188,-1776,140,-2784,146,-62
0.01658933,-16252,-1688,388,-2784,133,46
0.01658721,-16648,-1564,52,-2800,136,152
0.01658721,-16392,-1784,136,-2784,255,75
0.01659175,-16420,-1892,232,-2784,313,-98
0.01659323,-16236,-1732,348,-2800,161,461
0.01659019,-16516,-1688,164,-2816,-1,814
0.01659019,-16148,-1588,-120,-2800,-247,442
0.01659181,-16360,-1692,-284,-2800,64,-424
0.01659199,-16572,-1592,360,-2816,100,-357
0.01658869,-16544,-1428,172,-2816,8,219
0.0161159,-16276,-1508,220,-2816,60,189
0.0161159,-16184,-1556,108,-2832,113,-29
0.01659238,-16164,-1608,64,-2832,84,-22
0.01659238,-16572,-1556,436,-2768,205,135
0.01658323,-16484,-1728,428,-2768,177,176
0.01658398,-16420,-1492,16,-2800,117,232
0.01658398,-16384,-1452,-156,-2800,401,14
0.01658389,-16352,-1780,208,-2768,305,-41
0.01658433,-16352,-1444,356,-2800,64,219
0.01658497,-16592,-1592,316,-2784,-30,349
0.01658497,-16516,-1500,476,-2800,-87,575
0.0165837,-16456,-1740,68,-2800,-53,523
0.0165837,-16256,-1704,-76,-2784,-17,271
0.01658488,-16216,-1444,132,-2784,11,79
0.01658488,-16268,-1748,308,-2800,-162,197
0.01658608,-16328,-1544,68,-2768,28,120
0.01658608,-16320,-1596,144,-2816,14,130
0.0165853,-16224,-1676,252,-2816,-61,185
0.0165849,-16412,-1648,208,-2816,-73,34
0.0165849,-16576,-1784,184,-2784,-2,169
0.01658281,-16608,-1744,320,-2800,-246,467
0.01658449,-16248,-1476,148,-2784,-297,209
0.01658449,-15660,-1452,-592,-2768,-733,505
0.01658529,-16360,-1640,56,-2768,-335,249
0.01658377,-16388,-1704,20,-2800,-179,-89
0.01658377,-16396,-1668,68,-2768,-209,160
0.01658389,-16380,-1652,112,-2800,-123,221
0.01658389,-16424,-1632,116,-2784,-102,199
0.01658582,-16344,-1632,-52,-2784,-11,227
0.01658362,-16292,-1648,112,-2768,60,218
0.016583,-16504,-1596,184,-2784,9,52
0.01658206,-16504,-1660,0,-2784,-13,216
0.01658206,-16472,-1624,120,-2784,56,198
0.01658453,-16284,-1752,56,-2784,-17,181
0.01658427,-16356,-1624,-16,-2784,-200,161
0.01658338,-16264,-1704,100,-2816,-139,-67
0.01659028,-16096,-1488,708,-2784,-292,109
0.01659028,-16440,-1864,132,-2800,-132,93
0.01658281,-16476,-1572,204,-2768,-168,-2
0.01658498,-16388,-1436,-124,-2784,-161,244
0.01658649,-16324,-1536,-56,-2800,56,-43
0.01658465,-16320,-1632,296,-2752,82,-57
0.01658465,-16532,-1528,300,-2816,-148,490
0.01658403,-16252,-1532,12,-2752,-62,356
0.01658403,-16296,-1708,252,-2784,28,111
0.01658477,-16260,-1728,88,-2784,-4,333
0.01658237,-16528,-1652,148,-2768,124,-137
0.01658237,-16540,-1684,308,-2768,35,82
0.01658349,-16476,-1468,160,-2784,-139,572
0.01658554,-16188,-1588,-24,-2800,-108,276
0.01658544,-16284,-1516,-24,-2784,63,20
0.01658544,-16264,-1548,124,-2784,-13,232
0.01658447,-16308,-1656,108,-2800,-30,135
0.0165843,-16288,-1640,-16,-2784,-3,25
0.01658522,-16420,-1648,52,-2768,-39,8
0.01658428,-16472,-1608,184,-2800,-122,198
0.01658561,-16400,-1588,88,-2800,-168,186
0.01658495,-16324,-1568,124,-2768,-180,152
0.01658495,-16400,-1740,232,-2768,-280,62
0.01658203,-16408,-1772,228,-2768,-337,146
0.01658209,-16300,-1464,40,-2752,-237,96
0.01658209,-16352,-1528,228,-2800,-107,102
0.01658158,-16344,-1680,196,-2784,-52,214
0.01658152,-16144,-1668,64,-2800,-56,106
0.01658152,-16304,-1672,196,-2800,-88,94
0.01657989,-16608,-1560,184,-2768,-7,196
0.01658152,-16320,-1508,248,-2768,106,130
0.01657952,-16356,-1632,156,-2768,12,126
0.01658143,-16352,-1540,212,-2784,-25,386
0.01658143,-16336,-1688,164,-2768,51,58
0.01658573,-16268,-1688,-52,-2768,17,-18
0.01657978,-16340,-1688,288,-2816,-35,-28
0.01657934,-16688,-1572,232,-2752,-128,190
0.01657934,-16440,-1740,244,-2768,-143,529
0.01658162,-16072,-1788,144,-2816,-156,196
0.01658092,-16300,-1672,24,-2816,-204,56
0.01658063,-16408,-1656,232,-2816,-161,21
0.01658063,-16492,-1544,248,-2784,-164,184
0.01658095,-16344,-1608,228,-2784,-100,172
0.01657925,-16332,-1580,104,-2784,-60,174
0.01657709,-16260,-1668,-16,-2800,-59,144
0.01657709,-16332,-1724,280,-2752,-33,188
0.0165838,-16524,-1556,216,-2768,-121,249
0.01658182,-16296,-1564,112,-2800,-101,213
0.01658182,-16348,-1652,148,-2784,-136,172
0.0165795,-16352,-1592,92,-2800,-123,125
0.01658161,-16432,-1616,196,-2752,-124,176
0.0165809,-16448,-1572,116,-2800,-21,235
0.0165809,-16168,-1624,-40,-2784,-41,265
0.01658026,-16192,-1648,52,-2768,108,1
0.01657883,-16372,-1608,72,-2800,-5,117
0.01657883,-16272,-1660,144,-2768,-164,217
0.01658084,-16436,-1604,32,-2768,-108,89
0.01658073,-16336,-1568,188,-2800,-84,69
0.01658046,-16516,-1620,132,-2784,-29,212
0.01657958,-16296,-1584,252,-2784,-92,283
0.01657958,-16144,-1676,-60,-2752,-62,73
0.01658051,-16456,-1696,180,-2784,-1,13
0.01657863,-16292,-1672,188,-2768,-60,3
0.01658373,-16556,-1692,432,-2768,-231,-79
0.01658256,-16352,-1532,60,-2784,-245,215
0.01658012,-16308,-1716,76,-2784,-152,309
0.01658012,-16196,-1668,48,-2784,-18,-5
0.01657927,-16324,-1508,324,-2768,-49,134
0.01657927,-16224,-1568,92,-2768,-10,206
0.01658208,-16344,-1632,228,-2768,20,91
0.01658208,-16440,-1512,244,-2784,-95,-103
0.0165804,-16304,-1692,16,-2784,-60,-108
0.01657935,-16396,-1648,528,-2768,-122,73
0.01657935,-16384,-1584,144,-2752,-146,45
0.01658081,-16484,-1668,184,-2784,-85,88
0.01658081,-16232,-1684,344,-2784,-251,202
0.01658053,-16428,-1504,36,-2752,-137,194
0.01658053,-16528,-1520,244,-2800,-94,144
0.01658084,-16408,-1612,296,-2768,-116,142
0.01657943,-16268,-1520,196,-2752,-156,210
0.01658053,-16160,-1584,224,-2752,-51,-72
0.01658053,-16548,-1560,420,-2768,-80,88
0.01657398,-16380,-1564,228,-2768,-115,270
0.01658043,-16336,-1640,304,-2752,-27,171
0.01658043,-16352,-1668,264,-2768,10,57
0.01658136,-16328,-1552,164,-2768,-59,144
0.01658136,-16404,-1776,348,-2768,-57,227
0.0165815,-16328,-1792,336,-2752,-99,170
0.01658176,-16260,-1664,352,-2752,-74,74
0.01658533,-16364,-1700,112,-2752,-108,184
0.01652428,-16428,-1680,424,-2768,-61,106
0.01658034,-16420,-1640,300,-2784,-44,237
0.01658167,-16220,-1500,296,-2800,-80,332
0.01658185,-16324,-1644,252,-2768,-89,264
0.01658185,-16280,-1588,212,-2768,-34,38
0.0165745,-16268,-1592,252,-2784,-88,212
0.01658479,-16304,-1604,180,-2784,-157,267
0.01658485,-16312,-1608,156,-2736,57,39
0.01658485,-16340,-1592,340,-2768,-73,150
0.01657986,-16168,-1616,268,-2752,-229,428
0.01658043,-16368,-1788,36,-2784,-119,167
0.01658195,-16356,-1556,236,-2752,-56,-13
0.01658195,-16412,-1664,424,-2768,-150,189
0.01658097,-16400,-1620,308,-2752,-166,226
0.01658128,-16364,-1496,160,-2768,-88,78
0.01658128,-16324,-1580,100,-2768,-71,113
0.01658021,-16332,-1612,180,-2736,-60,121
0.01658021,-16484,-1692,336,-2752,10,130
0.01658294,-16376,-1672,400,-2768,-59,204
0.01657883,-16416,-1560,48,-2768,-84,133
0.01657883,-16240,-1632,180,-2768,-86,120
0.01658348,-16356,-1636,340,-2800,-95,53
0.01657963,-16400,-1620,272,-2736,-157,173
0.01657963,-16352,-1620,104,-2768,-116,129
0.0165842,-16484,-1708,436,-2768,-99,69
0.0165842,-16248,-1644,212,-2768,-156,205
0.01658029,-16404,-1516,460,-2800,-76,112
0.01658029,-16268,-1692,324,-2768,-50,194
0.01658173,-16352,-1644,192,-2768,-27,3
0.01658173,-16484,-1636,260,-2768,-13,95
0.01657919,-16376,-1568,416,-2752,-158,363
0.01658117,-16164,-1680,184,-2784,-151,156
0.01658154,-16284,-1572,328,-2784,-211,31
0.01695615,-16368,-1644,388,-2768,-188,191
0.01658155,-16324,-1584,320,-2800,-72,-14
0.01658155,-16536,-1544,292,-2736,-49,166
0.01658381,-16256,-1612,264,-2736,-4,121
0.0165843,-16348,-1724,436,-2784,-115,190
0.0165843,-16436,-1704,320,-2784,-184,181
0.01658036,-16244,-1628,236,-2768,-115,69
0.01658459,-16360,-1732,376,-2752,-89,109
0.01658459,-16412,-1640,284,-2736,-133,165
0.01658063,-16388,-1516,328,-2752,-36,174
0.01658362,-16260,-1632,360,-2800,35,113
0.01658362,-16300,-1660,356,-2800,-5,50
0.01658364,-16436,-1528,244,-2768,-147,245
0.01658177,-16384,-1612,300,-2768,-75,293
0.01658177,-16156,-1648,348,-2768,-73,221
0.01658474,-16412,-1752,156,-2768,-113,122
0.01651082,-16400,-1608,404,-2752,-200,312
0.01651082,-16360,-1564,524,-2768,-217,352
0.01658502,-16196,-1600,612,-2768,-261,245
0.01658142,-16352,-1524,564,-2752,-435,287
0.01658029,-16392,-1640,156,-2752,-557,362
0.01658481,-16624,-1708,-76,-2768,-237,139
0.01658481,-16368,-1828,236,-2768,-20,-50
0.0165844,-16440,-1588,608,-2736,-443,819
0.01658185,-16604,-1472,96,-2752,-595,1082
0.01658185,-16336,-1460,180,-2768,-495,781
0.0165824,-16268,-1552,136,-2736,-521,672
0.01658292,-16552,-1856,16,-2768,-512,590
0.01658153,-16560,-1720,48,-2768,-605,1130
0.01658165,-16340,-1624,-92,-2768,-679,1133
0.01658165,-16340,-1596,-16,-2768,-705,842
0.01658414,-16500,-1688,-176,-2752,-693,626
0.0165869,-16596,-1676,-340,-2736,-676,947
0.0165869,-16392,-1720,-472,-2768,-487,764
0.01658352,-16280,-1848,-292,-2768,-497,801
0.01658355,-16280,-1736,-200,-2784,-640,884
0.01658355,-16292,-1580,-496,-2768,-757,1230
0.0165833,-16376,-1748,-736,-2736,-431,772
0.01658317,-16276,-1640,-268,-2752,-566,704
0.01658317,-16596,-1864,-760,-2768,-653,890
0.01658331,-16288,-1780,-796,-2736,-550,655
0.01658331,-16188,-1916,-1020,-2752,-377,598
0.01658251,-16284,-1756,-824,-2768,-283,554
0.01658251,-16340,-1748,-928,-2768,-199,439
0.01658455,-16264,-1784,-660,-2736,-274,550
0.01658279,-16564,-1788,-472,-2736,-517,535
0.01658279,-16404,-1476,-732,-2736,-715,514
0.01658287,-16204,-1712,-1428,-2736,-540,259
0.01658287,-15908,-1908,-1340,-2736,-411,-3
0.01658261,-16240,-1932,-1144,-2768,-287,52
0.01658261,-16460,-1788,-1204,-2720,-231,474
0.01658649,-16296,-1632,-944,-2768,-199,363
0.01658649,-16208,-1708,-848,-2768,-206,28
0.01658364,-16276,-1800,-1008,-2784,-237,-247
0.01658252,-16280,-1796,-948,-2752,-299,-133
0.01658252,-16272,-1896,-1076,-2768,-334,-34
0.01658073,-16536,-2176,-756,-2736,-169,-251
0.01658036,-16320,-1900,-536,-2800,-314,99
0.01658036,-16192,-1688,-1024,-2752,-307,50
0.01658189,-16556,-1612,-900,-2736,-41,-23
0.01658387,-16412,-1784,-792,-2768,-252,-134
0.01658259,-16236,-1864,-776,-2752,-293,-252
0.01658092,-16088,-1964,-916,-2720,-303,-57
0.01658092,-16164,-1972,-608,-2768,-155,-397
0.01658383,-16240,-1872,-620,-2784,-166,-332
0.01658439,-16476,-1908,-548,-2736,-229,-122
0.01658439,-16392,-1796,-592,-2736,-286,7
0.01658313,-16208,-1792,-984,-2736,-241,-26
0.01658499,-16440,-1756,-716,-2784,12,-421
0.01658499,-16308,-1784,-408,-2736,19,-314
0.01658332,-16352,-1996,-564,-2736,-237,-90
0.01658332,-15936,-2192,-648,-2736,-263,-119
0.01658097,-16124,-2068,-492,-2752,-117,-461
0.01658368,-16424,-1844,-756,-2704,-156,-180
0.01658368,-16300,-1812,-296,-2720,-90,-87
0.01663581,-16440,-1712,-324,-2768,-57,-37
0.01659335,-16340,-1892,-656,-2736,-11,-23
0.01659412,-16568,-2040,-204,-2736,110,68
0.01659412,-16444,-1940,-264,-2752,-125,836
0.01659121,-16176,-1736,-396,-2736,-135,597
0.01659121,-16284,-1860,-476,-2768,-131,300
0.01659247,-16368,-1912,-468,-2736,-100,239
0.01659284,-16240,-1940,-532,-2752,-160,280
0.01659284,-16232,-1792,-584,-2768,-86,148
0.01659404,-16264,-1872,-620,-2720,46,-33
0.01659404,-16252,-1764,-552,-2752,8,111
0.01671963,-16344,-1776,-756,-2736,33,77
0.01659304,-16564,-1912,-676,-2736,34,137
0.01659559,-16464,-1920,-424,-2752,-139,225
0.01659559,-16292,-1788,-320,-2752,-203,346
0.0165935,-16360,-1904,-388,-2736,-221,275
0.01659371,-16360,-1824,-720,-2720,-137,76
0.01659371,-16388,-1820,-444,-2752,-83,21
0.01659065,-16384,-1864,-540,-2736,-75,186
0.0165956,-16220,-1932,-528,-2752,-49,233
0.0165956,-16460,-1960,-480,-2768,-105,195
0.01659282,-16344,-2044,-392,-2752,-190,394
0.01658842,-16304,-1956,-428,-2768,-226,353
0.01659412,-16508,-1928,-232,-2736,-223,393
0.01659126,-16184,-1700,-404,-2768,-157,530
0.01659126,-16256,-1836,-628,-2736,16,-49
0.01659448,-16572,-2060,-532,-2736,-44,216
0.01659457,-16308,-1956,-516,-2768,-32,314
0.01659532,-16320,-1832,-424,-2736,-143,488
0.01659532,-16312,-1824,-624,-2752,-172,354
0.01659612,-16172,-1976,-564,-2752,-69,193
0.0165952,-16320,-1988,-636,-2736,-65,170
0.0165963,-16320,-1972,-500,-2736,-140,285
0.0165963,-16300,-1860,-564,-2800,-174,234
0.01659377,-16276,-1904,-600,-2736,-105,50
0.01659377,-16404,-1964,-664,-2752,-65,139
0.01659424,-16304,-1872,-640,-2752,81,334
0.01660077,-16340,-1896,-812,-2720,-84,356
0.01660077,-16268,-1888,-644,-2752,14,214
0.01659543,-16496,-1916,-532,-2720,33,203
0.01659543,-16308,-1912,-432,-2736,-103,299
0.01659522,-16456,-1952,-840,-2768,-105,341
0.01659522,-16288,-1896,-932,-2720,-9,284
0.01659285,-16252,-1940,-780,-2736,-3,29
0.01659739,-16400,-1972,-584,-2752,8,171
0.01659739,-16528,-1964,-512,-2752,33,145
0.01659662,-16348,-1876,-636,-2720,-89,179
0.01659662,-16316,-1960,-792,-2736,-108,172
0.01659214,-16288,-1964,-712,-2736,-143,37
0.01658268,-16456,-2020,-552,-2704,-138,59
0.01658299,-16472,-1836,-736,-2736,-195,215
0.01658299,-16320,-1820,-628,-2752,-279,252
0.01658318,-16260,-1876,-836,-2736,-229,304
0.01658793,-16336,-1964,-720,-2768,-91,39
0.01658382,-16372,-1768,-684,-2736,-192,327
0.01658479,-16156,-1892,-960,-2784,-44,345
0.01501121,-16348,-1880,-644,-2720,55,155
0.01658435,-16352,-1976,-752,-2752,-77,289
0.01658359,-16220,-1968,-832,-2720,-47,345
0.01658133,-16196,-1852,-604,-2736,1,228
0.01658133,-16380,-1904,-712,-2736,-211,349
0.01658318,-16324,-1916,-848,-2736,-77,252
0.01658125,-16496,-1992,-552,-2720,-48,250
0.01658189,-16264,-1920,-820,-2736,-104,217
0.01658189,-16316,-1892,-864,-2768,-135,182
0.01658143,-16344,-1876,-908,-2752,-113,171
0.01658143,-16328,-1940,-804,-2752,-40,66
0.01658205,-16420,-1912,-692,-2720,-42,203
0.01658476,-16360,-1872,-796,-2720,-21,141
0.01658288,-16112,-1836,-740,-2752,-72,71
0.01658227,-16364,-1956,-692,-2736,-103,186
0.01658479,-16164,-1972,-808,-2736,-61,197
0.01657801,-16144,-2008,-892,-2768,-54,101
0.01664408,-16416,-1904,-680,-2736,-113,85
0.01664408,-16356,-1964,-676,-2752,-220,435
0.01659498,-16224,-1872,-756,-2736,-98,276
0.01659301,-16264,-1832,-816,-2736,-17,105
0.01659301,-16452,-1904,-796,-2720,-114,273
0.01659372,-16284,-1876,-676,-2752,-96,177
0.01659453,-16340,-1904,-708,-2736,-55,149
0.01659453,-16276,-1900,-908,-2704,-92,171
0.01659366,-16308,-1904,-608,-2736,-8,28
0.0165941,-16308,-1904,-564,-2752,-89,255
0.0165941,-16204,-1896,-960,-2752,-63,138
0.01659579,-16404,-1952,-776,-2736,-20,193
0.01659579,-16268,-1988,-732,-2736,-107,212
0.01659301,-16256,-1800,-772,-2736,-86,86
0.01659554,-16440,-2044,-800,-2736,-110,118
0.01659554,-16400,-1832,-616,-2736,-52,129
0.0165949,-16316,-1924,-696,-2704,-82,241
0.0165949,-16192,-1972,-868,-2736,-5,100
0.0165949,-16264,-1896,-676,-2736,-45,-2
0.0165942,-16248,-1948,-820,-2736,-124,115
0.01659327,-16288,-1916,-676,-2736,-173,237
0.01659327,-16232,-2000,-908,-2752,-107,-20
0.0165957,-16416,-1944,-512,-2704,-175,242
0.01659255,-16288,-1880,-904,-2720,-116,248
0.01659449,-16264,-1792,-632,-2704,-12,140
0.01659383,-16348,-2036,-640,-2736,-113,209
0.01659448,-16380,-1984,-804,-2736,-123,130
0.01659786,-16504,-1936,-608,-2752,-111,109
0.01659786,-16412,-1912,-740,-2768,-128,235
0.01659274,-16196,-1904,-696,-2720,-97,71
0.01659497,-16516,-1980,-776,-2704,-107,223
0.01659497,-16296,-1916,-832,-2736,-54,290
0.01659763,-16192,-2040,-860,-2720,-12,186
0.01659232,-16432,-1964,-660,-2736,-66,256
0.01659415,-16240,-1972,-792,-2704,-88,240
0.01659415,-16360,-1864,-888,-2720,-88,122
0.01659334,-16320,-1884,-824,-2736,-123,112
0.0165949,-16396,-1936,-752,-2720,-141,323
0.01659423,-16356,-2032,-744,-2720,-67,263
0.01659327,-16280,-1884,-676,-2736,-4,72
0.01659439,-16440,-1956,-700,-2704,-32,215
0.01449249,-16188,-2004,-856,-2704,-69,117
0.01659684,-16372,-1960,-696,-2720,-197,318
0.01659323,-16404,-1924,-1004,-2720,-163,273
0.01659456,-16296,-1864,-952,-2704,-6,85
0.01659348,-16224,-1936,-912,-2688,-95,270
0.01659402,-16260,-1900,-892,-2704,-62,152
0.01659402,-16304,-1884,-620,-2688,34,121
0.01659365,-16616,-1932,-656,-2752,-15,244
0.01659303,-16160,-1924,-788,-2736,-67,150
0.01659303,-16120,-1936,-656,-2720,2,150
0.01659401,-16248,-1884,-708,-2704,-36,169
0.01659401,-16420,-1872,-688,-2736,-89,263
0.01659401,-16220,-1948,-876,-2720,-113,170
0.01659274,-16444,-2000,-908,-2752,-127,12
0.01659274,-16376,-1848,-760,-2736,-154,177
0.01659497,-16332,-1940,-856,-2720,-108,98
0.0165946,-16288,-1788,-740,-2752,-70,63
0.0165946,-16240,-1960,-876,-2736,-138,187
0.01659408,-16340,-1932,-800,-2704,-49,-4
0.01659462,-16184,-1900,-588,-2720,-105,163
0.01659278,-16328,-2032,-812,-2704,-51,95
0.01659322,-16576,-1972,-596,-2704,-112,61
0.01659546,-16124,-1884,-928,-2720,-184,338
0.0165971,-16316,-1840,-808,-2720,-43,107
0.0165971,-16240,-1944,-748,-2704,-89,205
0.01659652,-16372,-2008,-724,-2736,-104,172
0.0165945,-16436,-1924,-828,-2736,-28,115
0.0165945,-16488,-1896,-600,-2736,-37,129
0.01659315,-16348,-1860,-888,-2704,-21,112
0.01659315,-16468,-2020,-864,-2720,-42,197
0.01659458,-16204,-1964,-784,-2720,-42,209
0.01659441,-16424,-1912,-776,-2688,-80,165
0.0165916,-16268,-1892,-704,-2720,-126,187
0.01659681,-16280,-1900,-636,-2704,-99,139
0.01659261,-16232,-1828,-908,-2704,-159,200
0.01659283,-16244,-1952,-1016,-2704,-44,140
0.01659624,-16364,-1896,-696,-2736,-66,165
0.01659116,-16332,-1800,-928,-2704,-65,215
0.01659403,-16424,-1936,-880,-2704,-74,210
0.01659505,-16172,-1884,-828,-2736,33,1
0.01659409,-16284,-1924,-596,-2736,-69,214
0.01659409,-16420,-1968,-1036,-2720,-59,101
0.01659589,-16368,-1796,-644,-2736,-132,276
0.01659463,-16328,-1960,-848,-2688,-101,122
0.01659661,-16376,-1776,-728,-2688,-19,323
0.01659475,-16208,-1972,-820,-2704,-146,271
0.01659537,-16200,-1916,-812,-2736,-25,90
0.01659537,-16500,-1904,-612,-2704,-117,181
0.01659073,-16332,-1796,-788,-2720,-89,254
0.01659073,-16204,-1924,-700,-2736,-78,101
0.01666087,-16332,-1988,-768,-2720,-100,203
0.01659396,-16412,-1952,-780,-2704,-58,140
0.01659396,-16184,-1928,-744,-2736,-63,234
0.01659359,-16152,-1844,-952,-2704,-85,175
0.01659418,-16308,-1868,-784,-2720,-87,60
0.01659418,-16452,-1816,-804,-2704,-132,174
0.01659391,-16296,-1880,-856,-2736,-48,183
0.01659473,-16396,-1864,-820,-2704,-14,167
0.01659473,-16268,-1872,-904,-2704,-89,174
0.01659224,-16336,-1880,-728,-2704,-80,133
0.01659438,-16296,-1800,-660,-2672,-179,183
0.01659464,-16404,-1856,-1072,-2736,-130,53
0.01659464,-16372,-1892,-828,-2736,-73,98
0.01659502,-16268,-2024,-988,-2720,-29,67
0.01659117,-16500,-1872,-688,-2720,6,233
0.01659924,-16340,-1868,-764,-2720,-144,411
0.01659365,-16244,-2020,-1000,-2720,-62,87
0.01659663,-16396,-1856,-716,-2720,-67,248
0.01659565,-16340,-1952,-744,-2704,-76,192
0.01659565,-16228,-1860,-908,-2720,1,39
0.0165935,-16436,-2036,-920,-2720,148,-39
0.0165935,-16384,-2064,-756,-2720,190,-99
0.0165945,-16244,-1872,-664,-2720,52,-47
0.01659376,-16136,-1992,-932,-2720,-69,309
0.0165944,-16308,-1988,-800,-2720,-28,127
0.01659398,-16512,-1996,-868,-2672,-78,126
0.01659378,-16324,-2068,-1220,-2704,68,134
0.01659378,-16200,-1940,-764,-2704,57,192
0.0165917,-16252,-1852,-816,-2688,20,119
0.01659372,-16308,-1860,-840,-2688,2,203
0.01659372,-16268,-2056,-636,-2720,62,-15
0.01659432,-16280,-1948,-796,-2672,-19,106
0.01658506,-16164,-1976,-796,-2704,150,-195
0.01658535,-16248,-1940,-560,-2688,269,-373
0.01658443,-16392,-1800,-484,-2704,339,-377
0.01658592,-16240,-1684,-452,-2720,390,-607
0.01658474,-16316,-1872,-668,-2704,451,-707
0.01658474,-16224,-1768,-496,-2688,502,-655
0.01658439,-16432,-2084,-376,-2704,511,-593
0.01658681,-16460,-1800,-288,-2704,463,-546
0.01658681,-16388,-1684,-300,-2704,505,-696
0.01658545,-16164,-1632,-392,-2688,592,-913
0.01658623,-16312,-1680,-20,-2704,487,-754
0.01658623,-16508,-1724,248,-2656,472,-702
0.01658359,-16524,-1552,156,-2720,332,-642
0.01658502,-16512,-1412,-260,-2704,312,-477
0.01658502,-16376,-1516,84,-2688,480,-625
0.0165844,-16460,-1404,372,-2672,438,-574
0.01658603,-16388,-1364,168,-2688,246,-356
0.01658603,-16444,-1492,160,-2704,243,-208
0.01658545,-16336,-1492,404,-2736,240,-92
0.01658495,-16264,-1624,272,-2688,275,-94
0.01658567,-16352,-1648,120,-2688,231,-43
0.01658399,-16420,-1452,368,-2704,141,-137
0.01658801,-16272,-1440,544,-2704,134,-458
0.01658801,-16300,-1628,352,-2688,207,-743
0.01658774,-16460,-1492,740,-2704,122,-281
0.01658689,-16588,-1568,612,-2688,155,-88
0.01658492,-16224,-1528,644,-2720,270,-131
0.01658492,-16400,-1412,672,-2720,240,-203
0.01658397,-16676,-1252,888,-2704,110,80
0.01658397,-16428,-1340,464,-2704,46,317
0.01663502,-16252,-1320,588,-2704,134,48
0.01659698,-16336,-1364,548,-2736,-16,232
0.01659698,-16296,-1312,348,-2672,-24,188
0.01659584,-16064,-1332,512,-2720,10,174
0.01659634,-16528,-1292,556,-2688,-12,311
0.01660017,-16400,-1200,512,-2720,92,155
0.01660017,-16228,-1296,448,-2688,131,129
0.01659661,-16196,-1488,896,-2704,-165,234
0.01659661,-16344,-1420,512,-2704,-424,586
0.01659721,-16184,-1232,588,-2688,-322,217
0.01659577,-16288,-1404,760,-2704,-428,-2
0.01659577,-16484,-1160,672,-2704,-500,259
0.01659567,-16116,-1188,500,-2704,-389,245
0.01659567,-16312,-968,640,-2688,-139,294
0.01659735,-16496,-1164,696,-2688,-25,123
0.01659735,-16512,-1248,772,-2688,79,65
0.01659204,-16196,-1500,188,-2688,103,17
0.01659204,-16304,-1244,296,-2736,361,-144
0.01659477,-16704,-1492,576,-2704,288,86
0.01659683,-16272,-1392,528,-2672,401,42
0.01659683,-16144,-1688,784,-2704,312,123
0.01659695,-16300,-1680,612,-2704,193,30
0.01659695,-16460,-1432,668,-2688,71,134
0.01659499,-16308,-1468,744,-2720,-100,223
0.01659499,-16484,-1500,784,-2704,-227,143
0.01659716,-16436,-1480,564,-2688,-223,169
0.01659693,-16340,-1168,728,-2704,-45,84
0.01659693,-16400,-1224,772,-2704,-178,155
0.0165969,-16256,-1360,508,-2704,-19,190
0.0165969,-16308,-1396,492,-2672,73,-31
0.01659687,-16292,-1452,644,-2704,8,116
0.01659687,-16292,-1528,540,-2704,26,181
0.01659694,-16332,-1528,480,-2688,49,63
0.01659667,-16152,-1452,596,-2688,-12,49
0.01659667,-16256,-1428,868,-2672,-111,99
0.01659795,-16372,-1368,620,-2688,-158,68
0.01659795,-16368,-1264,612,-2720,-85,209
0.0165974,-16456,-1524,620,-2640,-94,23
0.01659631,-16748,-1388,768,-2672,-127,93
0.0165962,-16512,-1444,668,-2688,-204,380
0.01659827,-16296,-1432,580,-2688,-144,407
0.01659665,-16332,-1428,680,-2720,-83,88
0.01659344,-16636,-1476,708,-2720,-140,77
0.01659344,-16444,-1356,660,-2704,-170,349
0.01659884,-16344,-1372,584,-2720,-104,385
0.01659443,-16300,-1536,632,-2688,-120,259
0.01659853,-16232,-1380,572,-2672,-90,255
0.01654743,-16400,-1388,424,-2672,-177,365
0.01654743,-16560,-1352,840,-2704,-49,340
0.01659053,-16516,-1388,628,-2704,-120,455
0.01659053,-16316,-1488,660,-2720,-176,414
0.01658682,-16544,-1536,520,-2688,-238,435
0.01658682,-16436,-1296,572,-2688,-236,668
0.0165884,-16388,-1320,500,-2720,-257,755
0.0165884,-16448,-1484,632,-2656,-315,856
0.01658852,-16404,-1404,500,-2688,-464,1190
0.01658687,-16204,-1308,624,-2704,-665,1487
0.01658769,-16312,-1568,176,-2672,-642,1193
0.01658956,-16196,-1368,-344,-2704,-257,483
0.01658956,-16576,-1616,-20,-2704,-85,146
0.01658784,-16388,-1392,316,-2704,-325,702
0.01658895,-16468,-1440,-16,-2688,-400,722
0.01658895,-16392,-1416,120,-2704,-323,711
0.0165851,-16140,-1508,-80,-2688,-283,818
0.0165851,-16344,-1568,-264,-2704,-500,1011
0.01658907,-16448,-1544,-52,-2672,-430,591
0.01658907,-16488,-1444,-416,-2688,-533,842
0.01658805,-16512,-1584,-404,-2704,-308,397
0.01658761,-16348,-1608,-144,-2704,-309,507
0.01658761,-16556,-1620,116,-2688,-519,683
0.016591,-16388,-1372,-324,-2672,-676,963
0.01658691,-16332,-1368,-128,-2704,-757,718
0.01658691,-16424,-1556,-476,-2672,-815,770
0.01658498,-16404,-1372,-548,-2704,-551,560
0.01659026,-16432,-1544,-500,-2704,-553,740
0.01658867,-16416,-1616,-460,-2704,-707,1240
0.01658722,-16300,-1760,-608,-2688,-734,1222
0.01658821,-16420,-1444,-724,-2704,-682,1121
0.01659059,-16544,-1604,-892,-2720,-533,905
0.01659059,-16232,-1524,-840,-2688,-459,887
0.01658682,-16432,-1628,-1024,-2656,-408,805
0.01658682,-16388,-1528,-768,-2704,-258,587
0.01658845,-16424,-1724,-768,-2704,-342,790
0.01659031,-16364,-1760,-1068,-2672,-452,742
0.01658764,-16248,-1676,-1224,-2688,-451,765
0.01658764,-16532,-1740,-1104,-2672,-213,334
0.01658852,-16332,-1784,-888,-2720,-447,699
0.01658852,-16424,-1808,-1280,-2656,-475,763
0.01658759,-16292,-1636,-1164,-2704,-339,594
0.01658859,-16312,-1640,-1308,-2688,-503,954
0.01658859,-16280,-1840,-1260,-2704,-401,778
0.01652507,-16192,-1912,-1356,-2704,-405,700
0.01652507,-16296,-1796,-1420,-2672,-287,491
0.01658823,-16488,-1628,-1568,-2688,-229,559
0.01658823,-16352,-1804,-1516,-2704,-199,663
0.016595,-16204,-1796,-1828,-2688,-63,388
0.016595,-16464,-1892,-1488,-2720,71,379
0.01659072,-16392,-1740,-1404,-2672,-142,1057
0.01659072,-16200,-1784,-1824,-2704,-126,712
0.01659641,-16620,-1824,-1540,-2672,-97,542
0.01658585,-16536,-1712,-1572,-2672,-119,788
0.01659481,-16284,-1632,-1780,-2688,-166,930
0.01659205,-16264,-1868,-1940,-2704,-42,578
0.01659205,-16276,-1676,-1808,-2688,-122,583
0.01658948,-16144,-1796,-1756,-2656,-182,663
0.01658948,-16132,-1604,-2000,-2672,16,239
0.0165926,-16376,-1612,-1792,-2688,13,20
0.01659318,-16528,-1632,-1972,-2704,-40,302
0.01659318,-16344,-1544,-1900,-2656,-47,468
0.0165934,-16084,-1668,-2036,-2672,-29,84
0.0165934,-16164,-1592,-1860,-2688,-102,184
0.01659131,-16216,-1796,-2116,-2640,-54,197
0.0165925,-16296,-1736,-1832,-2672,125,-311
0.0165925,-16468,-1544,-1456,-2656,-226,218
0.01659243,-16460,-1600,-2124,-2672,-307,355
0.01659243,-16432,-1652,-1896,-2688,-142,147
0.01659022,-16272,-1636,-1864,-2672,-122,138
0.01659502,-16328,-1516,-1944,-2656,-81,139
0.01659502,-16072,-1752,-1868,-2656,-105,187
0.01659338,-16372,-1588,-1820,-2720,-45,172
0.01659174,-16256,-1468,-1772,-2688,-13,191
0.0165952,-16412,-1692,-1792,-2672,40,114
0.01659044,-16168,-1688,-1932,-2720,-70,332
0.01655546,-16340,-1680,-1960,-2688,88,193
0.01655546,-16096,-1632,-2004,-2704,190,191
0.01659217,-16116,-1644,-1880,-2688,115,269
0.01659227,-16288,-1512,-1896,-2656,178,150
0.01659227,-16324,-1608,-2036,-2672,95,101
0.01659117,-16296,-1704,-1836,-2704,-14,116
0.01659288,-16436,-1760,-1856,-2704,-26,-11
0.01658991,-16440,-1732,-1844,-2640,-157,151
0.01659176,-16132,-1588,-1860,-2640,-143,100
0.01659194,-16320,-1744,-1824,-2672,-90,15
0.01658984,-16164,-1688,-1852,-2704,-17,45
0.01658984,-16344,-1740,-1732,-2688,-67,111
0.01659105,-16436,-1636,-2012,-2704,-21,133
0.01659028,-16412,-1788,-1892,-2672,137,-29
0.01659024,-16248,-1716,-1908,-2672,96,-65
0.01659024,-16288,-1648,-1984,-2672,245,-42
0.01659413,-16372,-1756,-1684,-2688,309,-215
0.01659513,-16536,-1920,-1788,-2688,48,308
0.01659429,-16316,-1700,-1676,-2672,62,108
0.01659429,-16252,-1672,-1748,-2672,65,-36
0.01659842,-16112,-1632,-1868,-2672,-18,-168
0.01659068,-16288,-1868,-1916,-2672,-115,-16
0.01659068,-16328,-1876,-1676,-2672,-106,-104
0.01658994,-16400,-1728,-1836,-2672,-83,-75
0.01659162,-16332,-1620,-1556,-2640,-134,-132
0.01659604,-16236,-1700,-1820,-2688,-186,-56
0.01659604,-16208,-1812,-1784,-2672,-226,-40
0.01659093,-16300,-1792,-1664,-2656,-141,9
0.01658198,-16340,-1816,-1528,-2688,-137,-14
0.01658449,-16204,-1736,-1752,-2640,-150,-169
0.01658449,-16060,-1784,-1628,-2672,-270,-366
0.01658099,-16444,-1680,-1716,-2656,-159,-413
0.01658345,-16428,-1756,-1748,-2720,-109,-297
0.01658328,-16468,-1888,-1372,-2672,-247,-65
0.01658328,-16508,-1732,-1412,-2672,-292,141
0.01658521,-16368,-1656,-1508,-2656,-168,-276
0.01658179,-16384,-1440,-1412,-2656,13,-730
0.01658241,-16292,-1824,-1388,-2672,-93,-607
0.0165821,-16452,-1896,-1464,-2672,58,-566
0.0165821,-16128,-1672,-1096,-2672,153,-631
0.01657956,-16368,-1628,-1116,-2656,178,-857
0.01658259,-16488,-1528,-1256,-2688,360,-1256
0.01658259,-16300,-1436,-1016,-2720,443,-1453
0.016583,-16332,-1540,-632,-2672,293,-1085
0.01658297,-16364,-1576,-1008,-2704,310,-694
0.01658297,-16040,-1680,-732,-2672,681,-1231
0.01658009,-16444,-1624,-496,-2672,601,-1399
0.01658235,-16436,-1648,-248,-2656,515,-1366
0.01658163,-16188,-1560,-420,-2688,712,-2016
0.01658384,-16416,-1652,320,-2672,698,-1781
0.01658605,-16848,-1856,452,-2656,257,-862
0.01658344,-16456,-1600,-296,-2672,394,-676
0.01657826,-15812,-1504,68,-2688,463,-1872
0.01658395,-16388,-1736,600,-2640,405,-996
0.01658395,-16292,-1552,396,-2672,242,-834
0.01658526,-16284,-1572,540,-2640,486,-1089
0.01658308,-16252,-1400,656,-2640,313,-685
0.01658308,-16176,-1516,580,-2640,296,-594
0.01658333,-16324,-1592,796,-2656,161,-336
0.01658132,-16444,-1476,956,-2640,247,-371
0.01658346,-16508,-1532,780,-2672,360,-532
0.01658346,-16556,-1496,904,-2672,268,-604
0.01658404,-16532,-1744,928,-2640,82,147
0.01658362,-16508,-1552,972,-2624,118,153
0.01658362,-16220,-1556,844,-2656,7,-48
0.01658069,-16336,-1528,996,-2656,-153,-50
0.01658549,-16340,-1512,944,-2672,-208,130
0.01658549,-16436,-1456,748,-2656,-120,-108
0.01658297,-16480,-1540,888,-2640,-177,-372
0.01658295,-16360,-1500,808,-2672,223,-283
0.01658295,-16176,-1476,1096,-2688,315,-278
0.0165838,-16208,-1412,1088,-2672,55,-38
0.01658175,-16556,-1648,1028,-2656,-120,427
0.01657881,-16452,-1652,904,-2672,-96,314
0.01657881,-16264,-1460,884,-2672,-43,185
0.01658538,-16100,-1436,1220,-2640,-156,150
0.01658191,-16512,-1420,1044,-2656,-445,384
0.01658191,-16312,-1280,772,-2672,-190,28
0.01657806,-16416,-1372,1160,-2608,-65,-130
0.0165808,-16352,-1324,904,-2672,-71,-6
0.01662295,-16412,-1472,808,-2656,-9,-302
0.01658993,-16364,-1400,964,-2672,-128,-23
0.01658993,-16388,-1424,1024,-2640,54,45
0.01658901,-16000,-1484,1000,-2672,-15,35
0.01658889,-16056,-1488,928,-2656,-188,418
0.0165895,-16456,-1516,956,-2656,-63,319
0.0165895,-16196,-1344,1132,-2672,-17,234
0.01659033,-16568,-1396,1048,-2672,-90,259
0.01659126,-16244,-1472,912,-2656,109,75
0.01659017,-16192,-1492,1172,-2704,103,151
0.01808371,-16312,-1580,1056,-2656,-12,309
0.01658887,-16124,-1464,1172,-2688,-135,390
0.01658887,-16244,-1524,996,-2672,-151,270
0.01659064,-16408,-1532,956,-2656,-138,370
0.0165945,-16476,-1568,952,-2624,-77,243
0.0165903,-16432,-1468,1076,-2672,-112,490
0.0165903,-16296,-1604,700,-2656,-118,453
0.01658955,-16344,-1656,988,-2688,1,153
0.01658927,-16340,-1532,964,-2672,-80,387
0.01658927,-16428,-1536,872,-2672,-81,502
0.01659019,-16612,-1624,868,-2656,-36,218
0.01658888,-16412,-1564,1116,-2640,-88,320
0.01659091,-16216,-1492,916,-2640,-144,479
0.01659757,-16068,-1568,660,-2656,-188,385
0.01659757,-16224,-1516,640,-2672,-90,335
0.01659241,-16316,-1480,1020,-2656,-76,345
0.01658638,-16256,-1504,952,-2672,-91,286
0.01658638,-16324,-1508,644,-2672,-86,322
0.01658984,-16236,-1612,692,-2656,-69,310
0.01658952,-16372,-1656,848,-2640,-89,258
0.01658952,-16372,-1456,976,-2672,-139,251
0.01659154,-16460,-1440,604,-2672,-162,516
0.01673188,-16388,-1764,660,-2672,-134,280
0.01658767,-16384,-1628,648,-2640,-164,386
0.01658376,-16348,-1420,684,-2688,-86,240
0.01658376,-16448,-1492,824,-2640,-54,271
0.01658912,-16232,-1496,832,-2656,-151,390
0.01659066,-16184,-1588,716,-2656,-180,293
0.01658986,-16292,-1572,640,-2640,-125,363
0.01659198,-16392,-1572,456,-2672,-6,251
0.01658944,-16612,-1572,1020,-2688,-80,511
0.0165906,-16364,-1532,644,-2640,-71,797
0.0165906,-16188,-1392,672,-2656,-100,705
0.01658965,-16352,-1608,724,-2656,-259,630
0.01658965,-16292,-1720,500,-2640,-365,662
0.01659117,-16200,-1036,468,-2640,-367,752
0.01659354,-16308,-1616,276,-2672,-313,567
0.01659017,-16356,-1620,452,-2640,-12,17
0.01649363,-16504,-1648,568,-2640,-222,436
0.01649363,-16616,-1712,312,-2672,-342,739
0.01659107,-16428,-1572,328,-2672,-229,647
0.01659107,-16372,-1588,492,-2640,-291,654
0.01659036,-16308,-1640,216,-2656,-262,552
0.01658981,-16144,-1612,336,-2656,-218,354
0.01659032,-16528,-1540,356,-2640,-227,571
0.01643723,-16516,-1488,256,-2656,-189,496
0.0166026,-16464,-1480,256,-2688,-352,752
0.0166026,-16448,-1752,584,-2656,-840,1488
0.01658988,-16068,-1264,-132,-2656,-868,1891
0.01659001,-16120,-1848,-448,-2672,-779,1353
0.01658741,-16404,-1560,-232,-2656,-374,331
0.01658741,-16336,-1556,224,-2656,-762,839
0.01658905,-16192,-1584,-32,-2640,-852,1266
0.01659016,-16312,-1676,-484,-2672,-740,889
0.01658932,-16332,-1688,-568,-2672,-435,568
0.01659427,-16216,-1528,-340,-2656,-362,589
0.01659427,-16388,-1596,-540,-2624,-440,611
0.0165915,-16220,-1760,-364,-2624,-528,568
0.01659003,-15960,-1664,-680,-2672,-512,176
0.01659003,-16384,-1760,-488,-2640,-493,-302
0.0165902,-16684,-1888,-148,-2656,-728,503
0.0165902,-16712,-1700,-424,-2672,-843,1206
0.0165902,-16320,-1684,-744,-2624,-701,1061
0.01658923,-16128,-1656,-692,-2640,-712,1050
0.01658923,-16272,-1924,-876,-2640,-581,741
0.01659235,-16472,-1896,-596,-2640,-496,642
0.01659105,-16524,-1760,-780,-2656,-533,696
0.01658871,-16456,-1724,-1004,-2640,-511,676
0.01659036,-16224,-2104,-756,-2656,-354,251
0.01658893,-16008,-1784,-600,-2624,-897,130
0.01658893,-16392,-1616,-1264,-2640,-923,117
0.01658938,-16264,-1824,-1272,-2656,-548,-210
0.0165898,-16480,-1900,-1048,-2640,-383,-29
0.01658867,-16320,-1888,-752,-2624,-267,428
0.01658867,-16292,-1704,-860,-2656,-132,499
0.01659055,-16544,-1868,-1144,-2624,12,68
0.01658995,-16108,-1884,-956,-2640,-91,84
0.01658911,-16512,-1960,-860,-2640,-86,149
0.01658981,-16592,-1940,-900,-2624,-129,73
0.01658866,-16420,-1944,-804,-2640,-439,435
0.01659142,-16504,-2060,-1000,-2656,-421,492
0.01658997,-16436,-1960,-1060,-2640,-356,219
0.01659141,-16152,-1852,-1048,-2640,-428,237
0.01659151,-16468,-1980,-940,-2640,-376,507
0.01659151,-16280,-1868,-804,-2672,-367,429
0.01659135,-16472,-1808,-1056,-2640,-329,535
0.01659138,-16164,-1880,-1244,-2624,-386,705
0.01658958,-16144,-1968,-1244,-2640,-223,471
0.01659223,-16252,-2004,-1344,-2640,-195,108
0.01659281,-16400,-1872,-1004,-2640,-237,341
0.01658864,-16076,-2004,-1128,-2656,-380,306
0.01659103,-16256,-2144,-1244,-2672,-439,257
0.01658925,-16200,-2184,-1244,-2672,-485,330
0.01658925,-16436,-1964,-1096,-2640,-307,64
0.01659244,-16512,-1924,-1052,-2672,-298,397
0.0165904,-16484,-2024,-1044,-2624,-296,454
0.01659133,-16296,-2068,-1240,-2640,-214,554
0.01659009,-16372,-2016,-1496,-2672,-143,651
0.01659204,-16244,-2032,-1388,-2640,-175,433
0.01659204,-16460,-2052,-1564,-2624,-77,337
0.01659016,-16336,-1976,-1312,-2624,32,232
0.0165888,-16212,-1940,-1400,-2624,33,292
0.01658653,-16320,-1960,-1412,-2640,5,293
0.01658653,-16352,-2120,-1320,-2688,51,206
0.01659129,-16044,-1988,-1276,-2656,-55,135
0.01659148,-16284,-2016,-1440,-2640,-4,163
0.0165926,-16648,-2104,-1380,-2640,78,24
0.0165926,-16504,-1892,-1000,-2656,-112,395
0.01659091,-16296,-1936,-1440,-2656,-89,188
0.01658559,-16432,-1916,-1032,-2624,26,25
0.01658973,-16308,-1932,-1104,-2624,-136,345
0.01658973,-16108,-1964,-1556,-2656,-13,206
0.01659107,-16380,-1960,-1288,-2656,36,43
0.01659107,-16180,-2056,-1280,-2624,-20,203
0.01659301,-16324,-2016,-1304,-2640,28,202
0.01659035,-16380,-2020,-1392,-2640,93,62
0.01663852,-16280,-1952,-1276,-2688,15,228
0.01659146,-16256,-1888,-1436,-2608,-64,355
0.01658956,-16136,-2000,-1216,-2656,-19,200
0.01659268,-16388,-1928,-1460,-2640,-18,25
0.01659321,-16268,-1880,-1276,-2640,-117,360
0.01659111,-16436,-1988,-1372,-2656,-35,208
0.01659111,-16344,-1968,-1348,-2608,45,131
0.01659002,-16436,-1988,-1384,-2656,22,180
0.01659002,-16212,-1968,-1348,-2656,23,227
0.01659093,-16168,-1932,-1440,-2608,48,202
0.0165914,-16236,-2012,-1104,-2656,72,171
0.01658894,-16132,-1872,-1184,-2640,10,284
0.01658894,-16304,-2048,-1272,-2640,9,142
0.01659104,-16108,-1944,-1280,-2624,-56,211
0.01658881,-16108,-2084,-1248,-2640,12,196
0.0165891,-16224,-1796,-1624,-2624,24,217
0.0165891,-16440,-2068,-1264,-2624,17,104
0.01659039,-16316,-2096,-1360,-2656,31,31
0.01659054,-16252,-2048,-1120,-2624,-92,367
0.01658826,-16208,-1884,-1496,-2624,-57,245
0.01658826,-16084,-1920,-1504,-2640,86,28
0.01659071,-16256,-1976,-1104,-2624,77,11
0.0165812,-16344,-2016,-1172,-2656,50,-122
0.0165812,-16116,-2044,-1192,-2640,-377,358
0.01658815,-16208,-2008,-1488,-2640,-352,430
0.01659017,-16328,-2184,-1312,-2640,23,-127
0.01659017,-16472,-1988,-1440,-2640,67,79
0.01658736,-16240,-1916,-1348,-2656,90,174
0.01659048,-16244,-1992,-1480,-2640,222,-71
0.01659048,-16276,-2136,-1236,-2624,112,-115
0.01809139,-16256,-2020,-1276,-2624,-1,134
0.01659007,-16412,-1932,-1464,-2688,137,104
0.01659007,-16312,-1868,-1336,-2656,169,128
0.01658904,-16208,-2036,-1356,-2640,293,83
0.01659132,-16228,-2036,-1220,-2640,266,152
0.01659132,-16188,-2036,-1276,-2624,136,154
0.01659302,-16368,-2108,-1192,-2624,133,166
0.01658887,-16208,-2096,-1228,-2656,139,-269
0.0165917,-16220,-1996,-948,-2624,-139,223
0.0165917,-16348,-2048,-1424,-2640,-12,142
0.01658807,-16328,-2196,-1332,-2624,218,-196
0.01658807,-16212,-2012,-1132,-2624,168,-324
0.01659254,-16368,-2068,-1332,-2608,245,-252
0.01658642,-16428,-2016,-1060,-2640,75,-313
0.01658642,-16408,-1968,-1256,-2624,13,-203
0.0165876,-16272,-2156,-1024,-2640,104,-449
0.01659034,-16104,-2100,-1092,-2640,43,-169
0.01659034,-16108,-1920,-1040,-2640,44,0
0.01659254,-16288,-2080,-1016,-2656,81,-188
0.0165886,-16196,-2044,-944,-2624,229,-321
0.0165886,-16116,-2020,-836,-2656,256,-491
0.01658835,-16340,-2104,-864,-2656,243,-432
0.01658821,-16360,-2340,-636,-2624,262,-548
0.01658821,-16408,-2188,-732,-2624,336,-487
0.0165921,-16196,-1976,-508,-2640,309,-672
0.01658781,-16272,-2236,-552,-2608,215,-579
0.01658445,-16172,-2176,-496,-2624,327,-835
0.01658445,-16032,-2196,-204,-2640,276,-1164
0.01659192,-16264,-1808,-160,-2640,424,-1414
0.01659127,-16408,-1824,-128,-2640,361,-1416
0.01659127,-16392,-2028,-28,-2656,471,-949
0.01659157,-16320,-2184,392,-2592,425,-749
0.01658957,-16268,-2044,-196,-2656,265,-472
0.01659165,-16132,-2024,-304,-2624,433,-779
0.01659088,-16264,-2088,280,-2640,626,-1444
0.01659088,-16500,-2124,472,-2608,302,-738
0.0165875,-16228,-2136,208,-2624,217,-688
0.01658949,-16092,-1988,500,-2624,141,-800
0.01658949,-16060,-1996,596,-2624,5,-804
0.01658904,-16324,-1976,540,-2608,-3,-1002
0.01659255,-16364,-1804,812,-2624,57,-854
0.01658852,-16628,-1940,948,-2656,68,-367
0.01658852,-16360,-2008,680,-2624,131,-210
0.01659116,-16332,-2132,716,-2640,205,-235
0.01659003,-16108,-2120,876,-2624,269,-238
0.01659003,-16528,-2120,948,-2672,227,-226
0.01658855,-16392,-1992,840,-2624,197,-24
0.01658888,-16040,-2116,852,-2656,191,-215
0.01658888,-16292,-2116,1032,-2640,109,-156
0.01659112,-16280,-2100,1096,-2608,179,-337
0.01658984,-16196,-2096,904,-2624,6,-278
0.01658844,-16436,-2112,900,-2624,-125,103
0.01658913,-16092,-1920,1160,-2608,-266,547
0.01658913,-16200,-1936,904,-2624,-295,144
0.0165884,-16264,-1816,656,-2624,133,-412
0.01658904,-16280,-2040,1016,-2624,255,-516
0.01658904,-16348,-2064,1240,-2608,-64,129
0.01664293,-16388,-2112,904,-2656,-90,270
0.01664293,-16060,-1940,948,-2608,-45,119
0.0165869,-16284,-2068,1052,-2640,-162,264
0.01659205,-16112,-2004,968,-2640,-245,630
0.01658935,-16132,-1976,996,-2640,-134,893
0.01658815,-16204,-1880,1236,-2640,100,-56
0.01658815,-16388,-1720,1072,-2608,-84,173
0.01659259,-16348,-1856,896,-2608,-64,389
0.01658711,-16284,-2112,896,-2640,-15,-52
0.01658711,-16344,-1988,948,-2640,-107,-7
0.01659022,-16240,-1972,916,-2608,-73,148
0.01659022,-16240,-2004,864,-2624,-55,356
0.01659065,-16344,-2076,872,-2640,50,161
0.01659035,-16236,-2040,1076,-2624,116,154
0.01659209,-16076,-2148,1096,-2624,34,322
0.01659209,-16164,-2240,1052,-2608,34,96
0.01658738,-16252,-2140,1256,-2624,-91,-41
0.01658907,-16324,-2240,916,-2640,-34,298
0.01658907,-16336,-2120,1016,-2592,64,144
0.01659136,-16316,-2204,988,-2608,-242,342
0.01659165,-16124,-2100,944,-2640,-339,480
0.01659127,-16072,-1992,1032,-2576,-345,376
0.01659127,-16208,-1992,752,-2608,-295,227
0.01658181,-16464,-1912,1032,-2640,-262,459
0.01659051,-16228,-2124,1108,-2608,-239,338
0.01659051,-16460,-2080,744,-2608,-135,241
0.01659065,-16260,-2124,848,-2624,-100,259
0.01659059,-16352,-2040,812,-2624,-215,565
0.01659059,-16072,-2088,728,-2608,-122,563
0.01659158,-16036,-2116,788,-2608,-55,276
0.01659172,-16220,-2068,728,-2640,-140,366
0.01659172,-16324,-2028,748,-2592,-226,436
0.01661254,-16396,-2056,852,-2640,-229,390
0.01659029,-16240,-2180,808,-2624,-155,354
0.01659046,-16120,-2144,776,-2608,-178,341
0.01659355,-16448,-2076,820,-2656,-282,474
0.01658844,-16392,-2044,640,-2608,-168,390
0.0165921,-16268,-2276,612,-2608,22,216
0.01659106,-16228,-2180,808,-2608,-54,182
0.01658852,-16440,-1908,944,-2608,-389,720
0.01658852,-16260,-1856,508,-2592,-147,626
0.0165897,-15976,-2132,464,-2592,90,309
0.01659077,-16208,-2152,664,-2624,-16,477
0.01659077,-16332,-2180,564,-2640,-46,643
0.01659047,-16420,-2004,656,-2624,-83,548
0.01659047,-16488,-1964,596,-2592,78,391
0.01659063,-16076,-1960,568,-2592,19,486
0.01659052,-16000,-2020,132,-2576,198,637
0.01659052,-16084,-2104,288,-2624,182,288
0.0165915,-16200,-2072,420,-2608,-33,375
0.01658691,-16508,-1952,680,-2608,-204,668
0.01658925,-16224,-1968,416,-2608,-321,834
0.01658925,-16096,-2144,348,-2640,-300,435
0.01658939,-16252,-2120,400,-2640,-443,416
0.01658633,-16408,-2096,360,-2608,-528,548
0.01659274,-16408,-2044,368,-2656,-495,493
0.01659274,-16236,-2032,220,-2624,-494,641
0.01658835,-16176,-2064,108,-2608,-478,492
0.01659043,-16360,-1956,44,-2640,-349,505
0.01658966,-16320,-2068,120,-2576,-387,347
0.01659102,-16276,-1964,216,-2640,-139,429
0.01659102,-16504,-2124,472,-2560,-217,680
0.01658546,-16264,-1956,100,-2624,-547,1351
0.01658829,-16224,-2052,-120,-2592,-451,779
0.01658829,-16300,-2036,-84,-2640,-411,725
0.01658605,-16476,-1976,44,-2592,-537,873
0.01659139,-16484,-2256,56,-2624,-808,797
0.01659139,-16324,-2060,-532,-2576,-443,714
0.01658766,-16216,-2088,-408,-2640,-225,413
0.01659125,-16320,-2168,-408,-2576,-208,564
0.01658925,-16284,-2144,-392,-2624,-205,699
0.01658925,-16620,-2312,0,-2608,-456,935
0.0165902,-16300,-2116,148,-2592,-943,1231
0.01659025,-16524,-2004,-632,-2640,-1003,1417
0.01658974,-16328,-2024,-888,-2640,-611,718
