Time,Ax,Ay,Az,Gx,Gy,Gz
0.01658091,0,0,0,0,0,0
0.01658091,-9371.431,-719.525,-2342.357,-7166.508,-514.4341,-1346.432
0.08289278,-12617.63,-1247.261,-3078.24,-8857.157,-799.4835,-1519.62
0.08289278,-12604.51,-1227.093,-2916.741,-9325.887,-853.8868,-1842.267
0.08289278,-12256.96,-1221.005,-2860.761,-9554.178,-884.8995,-1975.309
0.08289278,-11969.35,-1160.687,-2790.414,-9688.56,-904.9383,-1902.207
0.08289278,-11772.6,-1150.77,-2681.039,-9730.743,-899.076,-1961.875
0.04973698,-11632.43,-1151.635,-2647.968,-9718.597,-907.8962,-2042.881
0.04973698,-11602.42,-1107.195,-2690.067,-9687.616,-882.0036,-1972.551
0.01658,-11540.35,-1076.253,-2680.451,-9603.05,-846.9588,-1954.785
0.01658235,-11514.78,-1058.666,-2646.402,-9511.321,-828.8779,-2026.761
0.01657754,-11423.75,-1058.003,-2649.637,-9383.194,-825.9023,-1896.489
0.01657615,-11324.61,-1031.811,-2628.228,-9275.158,-802.7711,-1870.12
0.01657615,-11211.11,-1035.779,-2574.996,-9166.456,-801.4155,-1948.527
0.01657855,-11119.96,-1045.927,-2579.323,-9079.287,-806.6275,-1817.244
0.01657855,-11058.62,-995.3281,-2566.223,-9023.404,-765.1094,-1810.447
0.01657523,-11018.01,-996.0691,-2515.137,-8989.056,-765.0747,-1853.305
0.01657655,-10947.38,-999.9194,-2496.146,-8914.216,-767.4426,-1822.028
0.01657718,-10862.7,-1011.407,-2458.866,-8855.489,-772.0482,-1719.481
0.01657718,-10810.13,-983.827,-2463.044,-8799.637,-739.3735,-1672.952
0.01657888,-10809.94,-985.6008,-2460.68,-8797.765,-753.4103,-1769.128
0.01657871,-10805.38,-954.5528,-2496.656,-8788.741,-728.8814,-1905.011
0.01657829,-10781.54,-953.9971,-2536.15,-8765.681,-728.6757,-1872.77
0.01657457,-10736.43,-955.512,-2538.966,-8727.085,-732.0654,-1771.152
0.01657457,-10692.19,-964.2513,-2457.998,-8694.275,-730.7759,-1690.154
0.01658082,-10708.3,-960.5783,-2470.83,-8699.243,-728.9147,-1802.804
0.01658082,-10673.84,-985.3325,-2478.804,-8674.75,-751.583,-1778.578
0.01657883,-10643.84,-963.4417,-2480.689,-8636.353,-725.8444,-1781.111
0.01657826,-10618.03,-962.2547,-2445.514,-8623.681,-729.9084,-1773.406
0.01657538,-10611.1,-957.3273,-2471.344,-8612.415,-734.7421,-1719.913
0.01657538,-10595.51,-955.2358,-2452.256,-8599.169,-716.8431,-1686.243
0.01657761,-10621.83,-962.4002,-2413.052,-8618.12,-717.4346,-1740.665
0.01658018,-10603.04,-943.8437,-2421.332,-8611.525,-703.9336,-1773.977
0.01658018,-10612.51,-919.0207,-2470.974,-8604.521,-687.6757,-1740.192
0.01657775,-10601.83,-943.149,-2471.449,-8599.957,-718.5743,-1712.352
0.01657775,-10573.2,-907.984,-2438.903,-8577.391,-690.7972,-1717
0.01657835,-10593.03,-945.4753,-2398.076,-8600.861,-709.7657,-1766.083
0.01657835,-10608.19,-964.343,-2447.754,-8620.729,-733.7783,-1772.068
0.01657846,-10601.74,-950.4255,-2451.023,-8601.932,-717.725,-1656.11
0.01657864,-10572.45,-948.0148,-2435.434,-8565.823,-705.2767,-1715.19
0.01657864,-10591.05,-949.5169,-2468.455,-8593.042,-718.8443,-1859.456
0.0165789,-10581.62,-956.507,-2509.791,-8585.505,-727.4324,-1816.367
0.0165789,-10601.04,-951.9017,-2489.705,-8591.204,-726.0353,-1679.643
0.01658063,-10603.99,-936.3522,-2423.815,-8602.025,-699.9677,-1693.901
0.01657845,-10598.68,-933.0364,-2411.605,-8593.246,-709.9249,-1795.491
0.01657845,-10589.5,-946.2075,-2446.096,-8590.442,-714.7241,-1762.187
0.01657678,-10592.7,-960.9263,-2450.426,-8588.28,-723.4346,-1668.206
0.01657678,-10572.04,-939.8168,-2449.506,-8567.919,-723.5822,-1716.935
0.01658029,-10570.8,-950.98,-2390.452,-8571.347,-719.0602,-1766.311
0.01658029,-10562.29,-974.0657,-2455.98,-8560.367,-736.922,-1812.478
0.01658062,-10574.93,-969.8884,-2470.049,-8565.577,-745.2434,-1753.759
0.01657837,-10564.47,-935.1458,-2417.234,-8570.847,-697.5568,-1660.452
0.01657837,-10521.95,-948.5628,-2395.892,-8529.499,-699.2876,-1657.692
0.01658932,-10528.12,-961.0026,-2369.685,-8543.231,-729.0351,-1732.114
0.01658932,-10509.94,-954.9111,-2429.016,-8529.448,-720.4457,-1725.735
0.01657809,-10595.93,-889.5957,-2446.286,-8586.38,-665.8574,-1627.859
0.01657809,-10670.36,-854.6986,-2399.229,-8651.887,-635.8593,-1706.225
0.01657969,-10724.46,-833.2131,-2399.503,-8688.299,-625.353,-1771.05
0.01657809,-10657.54,-838.8706,-2357.118,-8645.475,-612.3324,-1473.861
0.01657809,-10593.41,-817.0974,-2297.575,-8587.362,-580.8413,-1340.204
0.0165804,-10519,-873.2115,-2228.468,-8534.994,-614.4199,-1464.916
0.0165802,-10490.27,-926.8264,-2290.463,-8508.906,-682.6835,-1656.498
0.01658433,-10482.87,-919.1778,-2386.357,-8512.48,-679.2469,-1643.991
0.01657566,-10489.28,-876.6049,-2353.475,-8522.137,-704.0219,-1383.719
0.01657891,-10460.39,-922.145,-2217.984,-8487.053,-750.9531,-1361.507
0.01657793,-10404.01,-910.2153,-2281.678,-8439.958,-765.4485,-1181.698
0.01657793,-10307.61,-912.2399,-2310.184,-8366.931,-777.3179,-1245.228
0.01657844,-10175.07,-1322.132,-2295.362,-8266.619,-826.33,-1884.938
0.01657844,-10234.76,-1660.858,-2666.972,-8322.326,-1211.396,-2121.88
0.01657965,-10263.95,-1346.957,-2706.718,-8336.634,-1170.513,-1636.494
0.0165781,-10444.03,-818.7915,-2633.361,-8479.221,-530.9189,-1414.952
0.0165781,-10795.74,-678.1204,-2597.744,-8743.172,-383.4209,-2005.617
0.0165821,-10969.76,-500.4604,-2561.231,-8879.034,-368.2712,-2766.892
0.0165821,-10790.37,-312.4958,-2763.446,-8744.6,-116.1717,-1797.382
0.01657862,-10637.59,-496.6996,-2442.408,-8631.373,-229.7856,-429.1244
0.01657872,-10477.41,-726.1956,-1850.015,-8495.462,-563.4291,-486.3127
0.01657896,-10286.18,-696.1587,-1909.009,-8345.394,-592.3048,-1569.655
0.01611515,-10259.89,-716.3262,-2450.357,-8335.228,-461.1727,-2182.649
0.01611515,-10369.49,-872.3317,-2878.041,-8424.323,-608.4313,-1860.726
0.01657733,-10470.33,-821.9945,-2887.865,-8501.759,-697.451,-1546.369
0.01656636,-10165.18,-923.0735,-2466.816,-8264.43,-774.5841,-1007.289
0.01657233,-10362.49,-814.1625,-2361.239,-8416.244,-543.1809,-929.4435
0.01657233,-10586.52,-876.4403,-2569.212,-8591.999,-830.1713,-2242.475
0.01657213,-10820.18,-84.09673,-3139.377,-8769.762,-457.0943,-2449.752
0.01657357,-10493.94,-264.675,-3031.926,-8506.025,-204.7258,-2767.562
0.01657357,-10637.65,-129.9769,-3362.377,-8629.035,415.4483,-2650.699
0.01657363,-10734.57,-588.1567,-3498.416,-8702.446,140.4155,-4731.991
0.01657363,-10382.18,547.9264,-4231.518,-8428.157,133.4967,-3492.386
0.01657203,-10630.3,627.3615,-4999.706,-8622.564,-3250.666,-2009.707
0.0165748,-10900.55,-2124.55,-3100.565,-8823.978,-8570.548,-5015.007
0.0165748,-11371.2,-6293.772,-5449.631,-9177.392,-10773.29,-6199.443
0.01657329,-12437.3,-8019.779,-5419.991,-9988.113,-10891.36,-11768.22
0.01657491,-11821.21,-7607.466,-8945.125,-9519.895,-14773.53,-15751.09
0.01657248,-11404.48,-11426.56,-13592.09,-9189.23,-15196.6,-19260.4
0.0165756,-11024.33,-10837.01,-15424.85,-8901.801,-12404.59,-19833.88
0.0165733,-8856.672,-10320.98,-13250.89,-7242.701,-12318.76,-18897.5
0.01657307,-7414.489,-10998.98,-12811.87,-6154.552,-7754.482,-18523.58
0.01670863,-6765.527,-7080.323,-12134.09,-5667.623,-8317.337,-10703.97
0.01657257,-7179.591,-10273.75,-4949.282,-6006.49,-6170.489,-4496.215
0.01657528,-7093.778,-6074.599,-313.5447,-5951.781,-134.1557,-2498.64
0.01657528,-7590.826,-1098.674,1432.363,-6332.256,-1604.82,3028.506
0.01657335,-8140.984,-3321.211,4766.325,-6763.582,-8522.525,1226.505
0.01657405,-7908.354,-10340.9,3741.034,-6581.211,-7721.362,969.0129
0.01656798,-6594.801,-9008.229,3831.974,-5587.505,-7721.634,2363.038
0.01657245,-5937.667,-7503.925,3616.053,-5103.811,-8155.764,4606.788
0.01657355,-7446.229,-8811.205,5976.403,-6257.008,-8396.269,3461.692
0.01657194,-7586.399,-8871.822,4596.876,-6376.484,-8719.724,1373.447
0.01657365,-6979.461,-9113.501,2068.484,-5906.996,-6583.139,-2322.381
0.01657368,-5171.525,-7883.642,1910.012,-4536.106,-5017.937,2344.929
0.01657368,-6899.794,-6329.357,4211.395,-5875.298,-2464.103,5544.902
0.01657329,-8124.72,-3910.977,7569.586,-6804.686,-2129.715,9714.362
0.01657329,-8683.791,-4249.316,9876.58,-7225.214,-3842.437,12621.94
0.01657571,-8190.93,-4628.518,12429.57,-6840.849,-8604.066,18496.64
0.01657571,-7188.345,-5299.455,13430.46,-6078.572,-12873.2,19199.97
0.01657501,-9452.241,-11301.54,14109.41,-7804.791,-17441.38,13315.19
0.01657333,-9435.668,-15876.92,8860.103,-7794.629,-9082.593,5871.145
0.01657471,-10312.61,-6987.344,4859.25,-8445.094,-1619.709,-4395.056
0.01657471,-8858.748,-909.9408,-1981.702,-7327.002,-753.7595,-3319.268
0.01657294,-10895.38,-1919.389,-3738.521,-8888.62,-3490.866,-1891.031
0.01657429,-10893.51,-4197.775,-1951.943,-8877.739,-2386.698,-3120.23
0.01657429,-12006.24,-2676.288,-2488.383,-9714.269,1875.379,-1778.041
0.01657419,-10690.15,-63.77647,-364.1409,-8702.368,2056.604,1507.544
0.01657419,-10929.91,1266.189,1932.521,-8879.979,913.8092,6194.182
0.01657424,-11371.14,-3222.582,4583.571,-9215.485,-5025.039,5436.308
0.01657424,-11053.64,-5463.08,3712.908,-8957.484,-5264.821,775.0409
0.01657344,-10435.58,-5617.465,606.6978,-8485.329,-5486.996,-2925.635
0.01657334,-10127.41,-6720.821,-2007.683,-8248.185,-5899.915,-4109.508
0.01657458,-9111.099,-7370.336,-2889.809,-7476.319,-6618.766,-6439.558
0.01657283,-9018.893,-3569.213,-4107.396,-7404.922,-2192.936,-2472.276
0.01657283,-9731.105,-2515.853,-1871.172,-7951.971,-1720.391,884.498
0.01657559,-9889.96,-2374.99,875.0952,-8069.095,-556.1619,1347.217
0.01657421,-9772.129,-1521.332,1574.922,-7987.682,1177.852,2319.627
0.01657421,-10539.68,-193.8751,2596.149,-8569.273,1999.654,4491.754
0.01657239,-11144.88,839.7966,3649.698,-9023.989,844.6107,3101.246
0.01657334,-11301.85,-369.757,2701.167,-9143.433,570.4175,2906.67
0.01657334,-11309.47,-232.6043,1929.931,-9139.938,629.3828,1553.78
0.01657346,-10685.13,-314.6491,1564.796,-8667.855,539.101,109.1832
0.01657346,-10278.85,-1364.502,312.9883,-8360.656,-1121.673,902.9923
0.01657161,-9873.239,-2633.483,948.5598,-8046.815,-3224.649,2640.383
0.01657161,-9661.365,-4290.509,1206.197,-7882.399,-4272.637,2736.885
0.01657319,-8985.189,-4962.392,1426.574,-7368.631,-4168.669,-223.468
0.0165731,-8729.712,-5681.598,-5.499528,-7178.319,-5483.291,-2038.344
0.0165748,-9811.364,-7044.775,-1090.661,-8017.987,-7194.174,-2206.636
0.01657476,-11044.1,-7573.643,-2643.78,-8941.657,-6378.042,-1658.492
0.01657308,-10883.81,-7808.958,-2031.217,-8823.865,-7465.925,-4234.428
0.01657308,-8785.063,-6867.663,-2485.843,-7223.047,-5394.291,1154.731
0.01657241,-8685.879,-5092.571,-571.905,-7148.059,-4259.227,4803.192
0.01657267,-8409.95,-5063.699,2769.84,-6937.979,-3210.594,4671.8
0.0165744,-8733.479,-4142.169,2902.21,-7190.424,-1256.617,2560.967
0.01657284,-9219.771,-2992.648,1533.165,-7560.833,-1543.484,463.6936
0.01657284,-9113.807,-2952.923,-432.3228,-7490.2,-1960.909,-2492.077
0.01657417,-9409.29,-3423.425,-1739.767,-7717.369,-1544.148,-3715.823
0.01657262,-9888.207,-2673.895,-2721.12,-8087.678,-1033.403,-2549.292
0.01657262,-10552.28,-2663.337,-2192.435,-8588.58,-488.1377,-2276.971
0.01657411,-10651.39,-2570.27,-1177.435,-8660.299,-1107.183,-4.170186
0.01657406,-10954.78,-2867.993,-108.3817,-8879.147,-1297.661,1246.162
0.01657665,-10483.83,-3406.258,844.7097,-8523.935,-2140.013,818.345
0.01657359,-10278.09,-3399.715,637.3743,-8355.734,-2424.24,-631.2997
0.01657359,-10493.63,-3403.745,-519.6369,-8527.886,-2510.595,-464.1852
0.01657235,-10545.84,-3418.875,-417.6179,-8556.933,-1796.777,723.1513
0.01657235,-11133.25,-3198.528,-316.4459,-9007.84,-753.2957,1520.712
0.0165719,-11464.35,-2950.116,86.96217,-9261.046,2269.23,-660.2501
0.01657226,-11902.41,-938.8194,5.698473,-9595.054,4560.061,-4739.155
0.01657226,-11611.24,1743.167,-2419.717,-9362.411,-636.5182,-9925.762
0.01657314,-7503.729,-2963.312,-4488.045,-6214.032,324.7409,-9432.455
0.01657314,-5637.526,-633.2158,-4256.24,-4801.563,2018.94,-1903.978
0.0165741,-5196.396,1682.997,1251.196,-4495.991,-1636.999,1994.872
0.01657385,-5009.803,-3175.68,4651.71,-4375.536,-10122.42,6585.237
0.01657386,-4500.583,-7722.377,4752.93,-3989.854,-14893.88,12728.82
0.01657763,-10921.63,-11246.57,2050.698,-8912.087,-13980,6603.112
0.01657763,-11004.34,-10817.57,3829.071,-8960.849,-4862.012,2197.468
0.01657872,-10762.79,-4383.475,1700.803,-8767.323,-869.777,2979.573
0.01657872,-11735.82,-2353.043,2325.758,-9502.851,-999.4551,3349.835
0.0165758,-12475.49,-1599.926,1905.908,-10052.88,-1724.82,3368.039
0.01657876,-11601.27,-1727.022,1398.79,-9382.589,-2254.818,4525.445
0.01657876,-10702.64,-1679.702,1395.192,-8685.007,-1486.518,4144.517
0.01859545,-9698.984,-801.1176,1089.417,-7911.51,-45.68254,2394.565
0.01859545,-9288.589,-5.798323,90.8629,-7603.902,2175.151,-90.95747
0.01658002,-9549.942,1175.086,-1450.604,-7810.48,3695.436,-1395.462
0.01657996,-9958.802,1861.873,-2419.993,-8119.486,3290.026,-2778.89
0.01657996,-10446.5,1107.107,-2982.802,-8491.396,1314.694,-2819.641
0.01657945,-11009.23,-104.3751,-3337.885,-8923.184,48.02722,-1585.432
0.01657945,-10872.43,-484.7739,-2944.524,-8814.652,-766.4537,-3315.118
0.01657842,-10556.69,-835.718,-4309.229,-8566.082,807.961,-4315.704
0.01657801,-11053.76,256.472,-4999.975,-8948.368,3346.494,-3710.387
0.01657801,-11698.58,1611.426,-3760.674,-9437.265,4306.976,-3393.957
0.01657769,-10755.55,2670.286,-2917.436,-8712.021,4127.936,-2079.093
0.01657769,-11135.06,2948.423,-1325.942,-8982.78,3203.817,-1545.806
0.01661375,-10625.22,3001.76,-72.43755,-8599.986,1950.399,-90.82732
0.01657784,-9808.938,1537.722,1017.563,-7976.629,-1609.309,3115.875
0.01657784,-8591.35,-1449.085,2207.596,-7058.963,-6368.38,5489.436
0.01657791,-8306.218,-4430.439,790.0595,-6839.661,-7222.138,2344.633
0.01657791,-8723.432,-4776.241,-1551.829,-7174.514,-4430.975,-3388.862
0.01657918,-9955.638,-3074.466,-4245.244,-8115.724,-1431.47,-5566.604
0.01657835,-10403.59,-1412.252,-5162.007,-8453.025,597.7936,-3475.405
0.01657799,-10845.98,654.4224,-3710.318,-8797.69,2329.74,-1389.953
0.01657799,-10891.38,1956.633,-2480.08,-8824.532,3028.222,-132.33
0.01657715,-10719.14,2292.508,-2065.098,-8694.306,3136.895,-426.6454
0.01657715,-10314.69,2231.669,-2099.676,-8374.543,3205.883,-2120.28
0.01658002,-9708.314,2099.883,-2460.389,-7920.182,2299.087,-3688.615
0.01457683,-9812.273,1310.091,-3816.607,-7988.219,775.1181,-4552.809
0.01858035,-10220.34,257.9399,-4521.927,-8305.523,-472.0028,-5843.625
0.01657862,-10693.37,-393.8288,-5261.4,-8666.258,-378.2215,-4603.003
0.01657862,-11006.11,-126.5177,-4609.423,-8911.736,146.5701,-3288.142
0.01657793,-11031.27,250.3151,-3543.151,-8923.414,408.0201,-3073.965
0.01657793,-10735.88,482.5836,-3229.088,-8699.529,321.6113,-3046.571
0.01657893,-10617.25,316.3589,-3136.656,-8594.276,185.8038,-2771.438
0.01657873,-10644.42,209.4232,-3107.045,-8623.107,485.6168,-2913.587
0.01657823,-10579.23,633.8247,-2938.109,-8572.546,1288.013,-2804.624
0.01657788,-10634.19,1115.622,-2777.03,-8622.891,1954.287,-1632.483
0.01657788,-10718.58,1914.032,-1556.888,-8664.509,3108.453,1125.808
0.01657728,-11005.45,1896.711,36.8419,-8895.932,2864.356,2206.362
0.0165769,-11291.44,1679.996,510.5898,-9116.781,2963.672,2669.495
0.01657693,-11265.95,1203.319,985.3848,-9090.113,1709.576,1553.1
0.01657616,-11042.51,335.4118,146.7338,-8917.194,-0.1205402,839.0338
0.01657616,-10768.1,-777.6557,-983.6528,-8706.48,-885.7606,-703.3382
0.01657646,-10619.99,-1686.558,-2063.153,-8597.798,-383.9365,-3742.192
0.01657925,-10494.1,-1081.176,-3444.52,-8497.779,-614,-5471.496
0.01657925,-10533.72,-943.7585,-4911.37,-8533.398,-1290.417,-4429.094
0.01657932,-10582.76,-1490.96,-4084.993,-8567.075,-1465.542,-3388.665
0.01657932,-10603.46,-1690.028,-3345.708,-8583.295,-1533.647,-2321.894
0.01657878,-10887.6,-1734.309,-2349.811,-8787.193,-1496.32,-1226.592
0.01657878,-10866.75,-1638.882,-1892.23,-8783.771,-745.7912,-797.1516
0.0165734,-10710.55,-627.8934,-1630.579,-8663.891,1125.013,-219.5894
0.01657842,-10793.81,123.6902,-1178.381,-8723.025,1998.953,-534.3687
0.01657842,-11045.94,909.4757,-859.6382,-8910.75,2127.481,-224.5356
0.01657901,-10653.31,122.7744,-975.2433,-8623.129,2588.707,188.005
0.01657842,-11038.36,752.1968,-586.8683,-8913,4284.08,974.3859
0.01657842,-10782.77,2777.144,-737.4171,-8716.786,6492.931,-750.7452
0.01657856,-10711.17,4734.676,-1117.397,-8662.114,7826.857,-2357.392
0.01657856,-10511.17,5058.592,-3702.583,-8500.847,8817.908,-5744.254
0.01657817,-10416.46,6626.216,-4162.067,-8434.002,8283.118,-10563.73
0.01657817,-10336.69,6168.572,-7111.311,-8369.944,4796.517,-5035.585
0.01657768,-10750.01,3025.161,-3591.384,-8691.304,1133.373,-2806.2
0.01657575,-10840.65,68.36449,-2184.734,-8760.17,-1119.312,-1060.04
0.01657575,-11036.73,-1791.387,-1098.006,-8900.349,-3294.476,-1085.651
0.01657917,-10227.64,-2279.158,-455.7599,-8290.332,-3172.216,-532.7509
0.0165793,-10201.29,-3811.173,-513.5579,-8267.718,-5156.172,-1632.735
0.0165793,-10377.56,-5153.246,-1156.351,-8404.097,-4329.822,-1857.436
0.01657908,-10501.83,-4280.048,-1349.044,-8513.195,-2819.111,-2506.341
0.01657905,-10556.92,-3461.671,-1496.467,-8551.158,-2278.683,-2638.85
0.01657905,-10548.43,-2428.54,-1369.633,-8540.348,-2125.186,-2138.157
0.01657842,-10548.05,-2577.501,-1238.014,-8540.188,-2437.99,-2070.58
0.01657908,-10377.45,-2815.233,-932.0687,-8414.519,-3034.957,-1562.254
0.01657816,-10452.62,-3105.554,-628.233,-8472.648,-2571.588,-1694.418
0.01657816,-10545.17,-1815.53,472.4541,-8534.808,-1838.29,-553.6436
0.01657868,-10343.51,-1887.437,500.2211,-8394.173,-3995.934,2224.875
0.01657704,-11058.61,-2561.591,1040.646,-8940.767,-2805.728,4050.204
0.01657879,-10774.8,-1899.671,3747.422,-8713.191,-1577.811,4837.531
0.01657879,-10824.65,-901.4591,3900.864,-8737.207,-1224.816,4884.9
0.01657851,-11155.68,-1042.678,3910.834,-9006.794,-759.4025,3163.346
0.01657851,-11002.12,-243.0859,2774.403,-8878.683,-336.8236,1848.158
0.01657914,-11002.46,-474.6581,1726.046,-8886.597,-571.006,1380.384
0.01657674,-11112.6,-1137.628,1148.1,-8965.15,-1130.672,2065.923
0.01657674,-10638.43,-1590.157,1196.305,-8597.393,-2353.615,1603.226
0.01657886,-10871.49,-1611.567,1546.512,-8780.32,-1359.045,2399.58
0.01657886,-10414.06,-559.1836,1399.36,-8426.349,-3619.364,2345.669
0.01658057,-10667.42,-3234.638,1571.462,-8630.04,-3149.897,3422.888
0.0165767,-10009.45,-2371.935,1633.366,-8132.51,-1708.317,4531.852
0.0165767,-9558.304,-1270.739,3148.77,-7786.47,-3024.043,8433.852
0.01657758,-10710.24,-3511.114,4713.893,-8665.526,-2501.73,4383.451
0.01657758,-10247.11,-731.3418,1806.722,-8311.344,749.4843,-2553.075
0.0165787,-11685.4,-2040.479,-1806.033,-9414.824,-1943.343,-6757.729
0.01658,-10631.25,-3334.256,-4769.241,-8601.264,-2758.052,-4060.379
0.01658,-10565.61,-2316.772,-3039.888,-8551.229,-2158.89,-237.6495
0.01657873,-10285.02,-2983.936,-1411.812,-8337.362,-2799.934,-585.5369
0.01657873,-10073.95,-3415.867,-925.0306,-8186.466,-2955.492,-997.1433
0.01657883,-10274.03,-3453.072,-1325.357,-8327.889,-3124.128,-374.5557
0.01657724,-10287.03,-3222.338,-1045.782,-8343.281,-2816.654,-1063.102
0.01657554,-10420.48,-3081.97,-1519.25,-8446.007,-2360.815,-1497.883
0.01657554,-10391.95,-2868.553,-1618.5,-8424.484,-2313.13,-1639.457
0.01657656,-10319.33,-2976.194,-1738.221,-8360.523,-2453.923,-1704.851
0.01657843,-10294.25,-2968.455,-1641.464,-8346.409,-2590.393,-1510.264
0.01658187,-10127.9,-3123.425,-1636.123,-8215.613,-3541.637,-1895.209
0.01657796,-10483.21,-3519.852,-2019.859,-8496.893,-3580.656,-2040.327
0.01657796,-10773.58,-3149.67,-1944.582,-8722.651,-2492.551,-1787.935
0.01657657,-10846.36,-2770.051,-1653.848,-8763.509,-1847.103,-1225.893
0.01657657,-10654.5,-2523.562,-1335.642,-8619.989,-1679.48,-1032.111
0.01657785,-10571.66,-2448.724,-1105.824,-8565.011,-1679.601,-923.1695
0.01657854,-10689.94,-2398.084,-950.6656,-8646.189,-1836.288,-736.3007
0.01657854,-10674.97,-2346.052,-738.8177,-8638.546,-2190.824,-471.4303
0.01657861,-10552.24,-2537.635,-762.9136,-8539.9,-2634.609,-787.2393
0.01657801,-10423.54,-2794.858,-1051.146,-8450.533,-2590.264,-1029.521
0.01657801,-10343.43,-2809.744,-1154.35,-8385.438,-2535.035,-1320.961
0.01657691,-10398.51,-2844.198,-1248.887,-8419.361,-2633.414,-1241.864
0.01657818,-10430.53,-2962.812,-1202.721,-8448.7,-2845.397,-1437.936
0.01657818,-10531.95,-3065.834,-1361.469,-8521.973,-2688.42,-1528.2
0.01657677,-10589.03,-2914.365,-1361.23,-8578.714,-2190.984,-1170.457
0.01657848,-10676.41,-2528.249,-1110.945,-8640.622,-1599.375,-707.5803
0.01657848,-10770.76,-2197.445,-725.4016,-8720.866,-1133.247,-300.6867
0.01657709,-10814.58,-1907.797,-368.9376,-8744.494,-829.6336,-102.6201
0.01657709,-10793.95,-1640.484,-227.6284,-8727.752,-720.6373,135.515
0.0165787,-10666.17,-1478.189,-92.67816,-8633.84,-735.0255,376.6501
0.01657839,-10545.27,-1425.628,35.28429,-8536.882,-829.3393,309.6214
0.01657839,-10442.5,-1493.428,-80.09644,-8445.405,-970.8697,125.6013
0.01657823,-10379.8,-1678.389,-160.936,-8402.63,-1202.024,-53.6725
0.01657722,-10401.08,-1835.363,-319.1781,-8428.552,-1368.729,-236.3045
0.01657684,-10480.3,-1944.225,-421.3651,-8489.644,-1478.121,-271.328
0.01657684,-10556.15,-2059.533,-487.6418,-8534.495,-1582.145,-246.6815
0.01657457,-10578.26,-2051.632,-471.5073,-8555.769,-1526.506,-284.9865
0.01657709,-10623.22,-2021.334,-472.4447,-8594.387,-1457.794,-279.9966
0.01657837,-10648.04,-2013.371,-497.8026,-8608.607,-1425.724,-311.8934
0.01657758,-10702.88,-1962.621,-493.6252,-8654.543,-1373.788,-329.3903
0.01657971,-10746.35,-2004.313,-570.3157,-8687.197,-1396.474,-747.2756
0.01657971,-10612.26,-2037.571,-768.5054,-8584.205,-1401.446,-826.9603
0.01657643,-10573.22,-2041.629,-829.073,-8567.647,-1397.856,-793.9016
0.01657902,-10518.52,-2028.025,-765.759,-8508.241,-1445.288,-564.1912
0.01657902,-10477.8,-2013.5,-624.7211,-8490.762,-1492.748,-437.6892
0.01657709,-10475.92,-1998.905,-578.9004,-8485.302,-1548.929,-375.9268
0.01657709,-10467.71,-2046.274,-515.3149,-8474.979,-1614.091,-363.9762
0.01658056,-10501.19,-2086.974,-466.7422,-8505.345,-1607.734,-360.0133
0.01658409,-10587.8,-2083.949,-467.5589,-8562.786,-1555.222,-333.1627
0.01658409,-10694.78,-2064.589,-449.7475,-8648.742,-1545.517,-295.144
0.01658409,-10673.61,-2084.741,-369.1748,-8645.338,-1483.801,-307.8817
0.01658409,-10678.31,-2062.966,-365.2165,-8635.196,-1523.956,-200.2701
0.01658409,-10665.72,-2064.865,-332.4419,-8629.646,-1540.041,-126.509
0.01658409,-10653.4,-2078.205,-302.4761,-8619.957,-1519.958,-103.2264
0.1989814,-10599.23,-2050.586,-274.6144,-8578.394,-1450.356,-174.6156
0.1989814,-10576.29,-2036.243,-249.2307,-8560.899,-1494.411,-115.8595
0.01658235,-10515.37,-2092.217,-325.9233,-8510.072,-1579.869,-45.11249
0.01658035,-10442.46,-2192.849,-284.7646,-8450.327,-1576.96,-109.7467
0.01658223,-10446.08,-2163.591,-301.6961,-8453.679,-1573.317,-124.1396
0.01658265,-10470.24,-2123.923,-343.1577,-8477.057,-1532.764,-177.3371
0.01658308,-10508.45,-2036.272,-343.1553,-8502.145,-1472.132,-257.0596
0.01658308,-10661.89,-1993.42,-353.2761,-8619.443,-1394.793,-207.7676
0.01658222,-10736.85,-1982.34,-258.0545,-8685.091,-1384.872,-94.21419
0.01658062,-10763.12,-2011.798,-187.213,-8708.883,-1500.883,-82.79942
0.01658069,-10775.03,-2037.584,-200.2391,-8708.388,-1658.583,16.80618
0.01658334,-10724.09,-2159.1,-170.2392,-8659.97,-1875.091,192.6134
0.01658334,-10621.25,-2251.78,-163.155,-8589.953,-1966.129,172.2006
0.01658317,-10594.26,-2218.172,-169.8884,-8564.956,-1820.62,244.978
0.01657903,-10559.76,-2182.37,-180.6389,-8543.199,-1536.887,145.7096
0.01658089,-10475.79,-2034.926,-174.2974,-8483.784,-1338.225,56.8009
0.01658389,-10387.66,-1740.724,-300.4384,-8412.615,-1306.356,60.89268
0.01658207,-9684.865,-1726.65,-434.8084,-7868.116,-1164.891,-1954.983
0.01658207,-10492.39,-2110.764,-1217.863,-8496.824,-650.1452,-900.9819
0.01658237,-10578.25,-1885.759,-605.4323,-8557.882,-794.2081,-876.1911
0.01658166,-10609.11,-1665.541,-1177.274,-8585.504,-1645.623,-219.4747
0.01658152,-10443.67,-2063.87,-352.8986,-8454.339,-1660.624,-630.8055
0.01658152,-10431.01,-1942.679,-767.2018,-8444.917,-1318.06,-692.4763
0.0165817,-10541.5,-1902.27,-669.017,-8533.954,-1248.753,-50.68146
0.01658154,-10638.27,-1873.015,-114.9568,-8616.482,-1289.808,238.2772
0.01658154,-10627.75,-1809.637,-16.83201,-8594.589,-1265.403,96.57114
0.01658095,-10531.87,-1755.001,-132.8795,-8525.4,-1165.56,-219.0648
0.0165794,-10440.09,-1743.706,-319.9478,-8455.313,-1150.866,-189.7744
0.0165794,-10414.46,-1789.817,-420.83,-8431.647,-1148.938,-327.2026
0.01658277,-10477.64,-1754.672,-451.5887,-8484.696,-1142.962,-377.8666
0.01658311,-10540.52,-1708.692,-399.1326,-8532.798,-1179.696,-346.5788
0.0165818,-10562.79,-1757.392,-401.5901,-8554.079,-1160.416,-312.5647
0.0165818,-10594.35,-1777.473,-234.7754,-8577.942,-1055.189,-255.5028
0.0165818,-10687.61,-1745.189,-214.7867,-8644.373,-1149.143,-213.7955
0.01658139,-10833.07,-1781.002,-279.7664,-8759.204,-1340.011,-135.3963
0.01658146,-10873.27,-1873.824,-265.6746,-8784.324,-1428.17,-102.142
0.01658146,-10776.08,-1937.453,-277.3421,-8708.98,-1383.717,-142.8844
0.01658218,-10655.66,-1921.719,-180.4206,-8611.98,-1382.286,-128.5358
0.01658143,-10571.3,-1963.396,-229.8527,-8556.342,-1430.03,-208.375
0.01658194,-10526.7,-1958.371,-313.3733,-8509.212,-1454.715,-275.6704
0.01658194,-10493.24,-1978.912,-327.0953,-8488.483,-1428.031,-322.016
0.01658187,-10480.07,-1920.319,-394.4423,-8483.322,-1409.701,-253.529
0.01658309,-10500.96,-1920.417,-294.1409,-8490.86,-1387.091,-196.9714
0.01658309,-10522.61,-1881.871,-269.8259,-8507.719,-1291.025,-196.0085
0.01658262,-10546.82,-1868.285,-174.0152,-8526.426,-1242.576,-197.2841
0.01658195,-10553.5,-1840.33,-124.4212,-8540.487,-1277.168,-108.2817
0.01658327,-10613.06,-1857.076,-135.5955,-8585.995,-1385.161,-26.32598
0.01657934,-10658.79,-1960.724,-48.12893,-8620.711,-1471.948,51.62455
0.01658124,-10652.88,-2072.078,23.78665,-8606.997,-1565.043,47.07723
0.0165818,-10674.23,-2070.42,3.69581,-8636.325,-1547.11,24.6101
0.0165818,-10684.13,-2088.029,-11.06595,-8634.68,-1563.686,2.538845
0.01658083,-10624.92,-2068.923,-102.8899,-8589.16,-1537.288,-19.47087
0.01658083,-10555.66,-2059.198,-97.95348,-8540.661,-1546.479,2.783403
0.01658101,-10535.36,-2050.201,-69.11876,-8525.361,-1520.559,5.037574
0.01658159,-10537.21,-2044.368,-97.72232,-8518.167,-1495.524,-51.81052
0.01658159,-10531.95,-2013.848,-97.1127,-8518.828,-1458.676,-54.83317
0.01658022,-10633.51,-1913.54,-100.6845,-8596.571,-1382.58,-36.37561
0.0165836,-10611.96,-1951.98,-138.7877,-8588.8,-1392.846,-127.1036
0.01658073,-10612.55,-1869.183,-184.8437,-8580.276,-1306.275,-179.8422
0.01658235,-10589.32,-1832.253,-250.3426,-8562.473,-1274.731,-218.9725
0.01658235,-10605.62,-1816.505,-198.8717,-8574.936,-1246.986,-177.2133
0.01657971,-10635.06,-1784.865,-143.3455,-8597.361,-1225.694,-45.93323
0.01658155,-10626.59,-1777.046,-43.00501,-8595.177,-1198.813,-47.3347
0.01658155,-10612.61,-1784.891,-157.4566,-8575.532,-1181.397,-114.2876
0.01658206,-10617.48,-1793.28,-49.12333,-8592.517,-1195.918,9.741815
0.01658285,-10616.01,-1783.9,8.817002,-8582.457,-1237.19,70.97213
0.01658285,-10591.65,-1818.131,2.938632,-8563.824,-1296.943,121.2188
0.01658112,-10608.46,-1868.466,93.86078,-8581.148,-1339.107,88.84851
0.01658032,-10606.2,-1861.897,82.7019,-8566.102,-1356.451,8.145809
0.01658032,-10593.59,-1912.746,21.54203,-8560.928,-1395.727,-10.73729
0.01658237,-10610.73,-1924.801,-39.68513,-8578.501,-1427.361,-46.34542
0.01658059,-10602,-1950.874,-70.26617,-8571.812,-1424.763,-65.52734
0.01658118,-10611.29,-1960.693,-63.78465,-8583.345,-1426.64,-41.63316
0.01658118,-10631.16,-1958.444,-76.47118,-8602.905,-1402.148,27.64844
0.01658154,-10663.74,-1947.185,9.707922,-8618.791,-1320.192,57.05215
0.01658023,-10649.09,-1913.223,92.79592,-8607.4,-1298.688,122.3547
0.01658331,-10631.37,-1856.992,132.169,-8593.741,-1292.433,270.8762
0.01658173,-10583.2,-1894.544,120.7886,-8565.781,-1334.069,279.497
0.0165841,-10602.9,-1934.214,170.7899,-8572.084,-1319.24,168.9108
0.0165841,-10613.32,-1907.328,109.8235,-8584.521,-1368.21,188.7704
0.01658097,-10589.61,-1910.406,71.3539,-8561.984,-1325.068,151.1777
0.01658323,-10560.27,-1879.616,132.0302,-8539.688,-1346.735,134.6458
0.01658085,-10548.95,-1917.297,82.47526,-8517.951,-1420.127,16.73749
0.01658114,-10532.57,-1992.104,28.84,-8514.563,-1547.919,-180.3199
0.01658052,-10529.15,-2167.94,-74.8504,-8521.078,-1693.693,-391.775
0.01658255,-10565.4,-2123.129,-308.5455,-8544.548,-1457.436,-543.1465
0.01658255,-10597.85,-2023.675,-326.001,-8560.532,-1460.228,-408.8395
0.01654455,-10584.57,-1995.646,-188.3625,-8568.082,-1496.197,-268.5105
0.01658222,-10569.28,-2032.906,-200.9097,-8543.095,-1469.564,-28.67328
0.01658222,-10642.17,-1997.868,-16.02848,-8603.23,-1414.616,91.52577
0.01658256,-10556.14,-1975.726,138.569,-8541.77,-1404.63,146.9453
0.01658023,-10506.99,-1988.086,160.0644,-8499.937,-1450.962,213.9232
0.01658136,-10519.59,-2027.914,170.3704,-8505.425,-1468.271,156.7776
0.01658055,-10604.91,-1990.007,170.0602,-8579.642,-1400.373,107.2563
0.01658055,-10646.08,-1962.457,234.5139,-8615.354,-1397.962,249.1701
0.01658166,-10655.38,-2020.56,256.8107,-8613.305,-1518.318,424.1542
0.01658034,-10600.35,-2024.896,374.9785,-8566.585,-1474.537,400.8523
0.01658034,-10546.82,-2032.187,323.5383,-8521.271,-1430.362,236.3999
0.01658375,-10571.04,-1935.149,168.0086,-8553.245,-1366.474,117.4734
0.01658148,-10626.59,-1957.438,143.3277,-8595.697,-1421.168,88.02713
0.01658015,-10667.78,-2012.706,116.3968,-8613.674,-1458.737,123.1819
0.01658161,-10615.89,-1975.984,148.8726,-8587.078,-1442.217,214.4576
0.01658161,-10777.12,-1930.107,124.3257,-8701.208,-1384.495,136.4723
0.01658206,-10723.11,-1918.283,156.5577,-8663.744,-1407.829,197.3534
0.01658206,-10666.31,-1907.538,224.0029,-8624.42,-1393.991,238.1043
0.01658167,-10615,-1919.325,230.3901,-8576.244,-1382.155,153.6593
0.01658245,-10585.96,-1879.448,189.8931,-8558.594,-1356.34,136.9507
0.01658245,-10605.86,-1929.807,86.20313,-8565.105,-1415.865,83.50538
0.01658201,-10619.82,-1963.241,85.47058,-8584.725,-1430.349,108.7178
0.01658201,-10611.6,-1962.074,163.707,-8569.603,-1449.885,199.3843
0.01658265,-10604.52,-1964.739,203.0223,-8568.699,-1437.693,211.2069
0.01658123,-10607.24,-1924.313,256.0952,-8570.848,-1401.504,222.64
0.01658123,-10617.8,-1911.116,202.406,-8583.403,-1407.322,194.2909
0.01658126,-10615.23,-1912.363,282.4428,-8572.58,-1397.582,284.8535
0.01658159,-10595.9,-1903.92,290.3065,-8562.285,-1382.668,282.5818
0.01658159,-10640.18,-1872.724,242.644,-8596.177,-1344.332,210.2753
0.01658187,-10615.08,-1879.128,200.4031,-8568.065,-1346.741,166.2395
0.01658323,-10575.87,-1866.825,204.3984,-8542.604,-1355.592,196.4757
0.01658323,-10588.68,-1868.296,196.4934,-8556.991,-1377.429,240.2569
0.01658059,-10594.26,-1925.051,247.6212,-8565.775,-1418.126,228.2113
0.01658069,-10578.89,-1927.321,229.3422,-8540.801,-1417.006,245.6484
0.01658069,-10565.45,-1923.06,189.3463,-8548.403,-1441.65,251.5132
0.01658126,-10585.81,-1946.239,179.3572,-8546.354,-1447.32,156.2978
0.01658145,-10579.9,-1931.575,154.2656,-8546.352,-1427.654,121.2505
0.01658088,-10522.38,-1900.933,280.6061,-8502.529,-1310.861,107.7444
0.01658088,-10612.1,-1856.096,170.5774,-8571.313,-1417.591,268.0428
0.01657914,-10683.52,-1853.722,248.8846,-8625.743,-1364.357,254.5875
0.01658292,-10624.02,-1896.264,237.2231,-8584.411,-1426.669,291.4229
0.01657876,-10587.84,-1861.949,240.771,-8547.847,-1384.643,234.8712
0.01657876,-10564.36,-1883.077,196.2338,-8538.863,-1402.834,196.6
0.01658245,-10587.54,-1868.23,200.2407,-8556.697,-1375.188,208.8704
0.01658162,-10611.2,-1880.42,153.1683,-8579.227,-1372.7,197.6164
0.01658271,-10636.14,-1845.369,182.3758,-8598.19,-1326.919,178.5189
0.016581,-10610.61,-1827.199,127.9939,-8582.979,-1333.519,181.9893
0.01658044,-10634.36,-1815.898,163,-8587.762,-1331.787,200.3347
0.01658044,-10661.17,-1830.345,200.3872,-8616.984,-1343.064,228.1144
0.0160949,-10671.13,-1824.755,227.1152,-8615.506,-1340.902,244.5618
0.01658116,-10658.7,-1832.136,190.7934,-8614.665,-1341.162,207.8118
0.01658131,-10637.94,-1845.767,189.2569,-8594.23,-1342.282,200.0066
0.01658131,-10605.62,-1864.44,125.7103,-8556.212,-1353.297,126.8853
0.01657352,-10617.61,-1857.377,139.8615,-8583.196,-1362.319,168.4805
0.01657397,-10619.45,-1845.458,126.4705,-8566.883,-1384.799,188.8934
0.01657433,-10602.57,-1853.787,126.7332,-8562.9,-1377.011,131.899
0.01657481,-10590.74,-1886.578,108.8337,-8567.248,-1401.468,83.03292
0.01657173,-10618.54,-1888.538,88.42355,-8575.257,-1436.335,149.7986
0.01657217,-10623.56,-1878.458,117.6239,-8579.094,-1427.048,172.586
0.01657217,-10594.35,-1911.076,136.2693,-8561.211,-1402.229,155.0533
0.01657341,-10608.45,-1894.139,143.9723,-8576.485,-1386.113,134.9748
0.01657321,-10678.87,-1887.28,101.0044,-8621.391,-1381.655,92.85578
0.01657321,-10647.64,-1865.009,111.1374,-8601.744,-1377.094,134.6493
0.01657418,-10607.01,-1905.868,168.7517,-8570.626,-1381.455,220.5734
0.01657338,-10542.26,-1867.043,281.9649,-8516.835,-1358.125,188.2539
0.0165725,-10542.39,-1823.782,134.9913,-8508.391,-1341.244,108.3986
0.0165725,-10547.32,-1855.379,92.87022,-8525.747,-1374.977,109.9383
0.01657319,-10570.81,-1860.197,75.47769,-8543.895,-1376.474,105.4944
0.01657427,-10577.07,-1839.205,43.55457,-8544.339,-1353.821,70.31557
0.01657457,-10553.12,-1843.026,26.99559,-8526.137,-1358.51,94.89471
0.01657411,-10557.07,-1843.377,39.51065,-8542.612,-1338.641,57.41174
0.01657411,-10533.24,-1863.736,47.73339,-8506.791,-1286.166,79.26598
0.01658014,-10574.72,-1782.755,86.87895,-8551.971,-1279.642,129.3286
0.01658014,-10591.6,-1830.191,203.8872,-8555.995,-1381.833,81.29562
0.01657283,-10631.2,-1855.24,51.76744,-8586.181,-1442.197,122.3658
0.01657484,-10637.49,-1886.837,103.2835,-8595.232,-1398.531,103.9274
0.01657484,-10636.46,-1825.543,71.48308,-8594.241,-1335.802,82.74021
0.01657424,-10634.41,-1833.043,85.33063,-8583.64,-1392.618,128.357
0.01657424,-10610.64,-1885.382,96.99829,-8569.806,-1482.673,125.6341
0.016573,-10592.26,-1927.394,125.9149,-8560.174,-1475.079,28.60146
0.01657315,-10604.86,-1851.394,-9.161452,-8569.822,-1400.909,-73.80908
0.01657315,-10604.48,-1838.911,-48.12318,-8569.507,-1317.708,9.535413
0.01657432,-10552.15,-1798.691,-1.535425,-8529.55,-1264.784,84.61543
0.01657432,-10552.77,-1806.217,115.9341,-8525.778,-1256.518,130.1208
0.01657464,-10574.44,-1783.643,95.15774,-8542.49,-1246.839,192.6994
0.01657242,-10602.82,-1734.54,148.3065,-8568.656,-1235.774,276.4609
0.01657416,-10620.58,-1735.428,209.6352,-8577.726,-1296.744,357.3347
0.01657416,-10590.85,-1842.231,358.2195,-8554.928,-1413.722,466.0654
0.01657535,-10640.99,-1799.719,281.7021,-8597.649,-1412.606,404.9931
0.01657375,-10585.99,-1827.541,298.2996,-8555.479,-1390.518,273.3589
0.01657375,-10663.42,-1831.553,170.4003,-8610.199,-1373.524,100.1857
0.01657429,-10670.72,-1824.001,26.95861,-8619.953,-1346.914,-21.82482
0.01644661,-10657.97,-1785.911,-47.91888,-8609.968,-1345.544,20.38919
0.01670013,-10654.57,-1780.529,-19.22768,-8602.759,-1343.189,49.96836
0.0165747,-10641.15,-1777.723,-28.12724,-8592.378,-1314.282,-28.84017
0.0148515,-10625.37,-1788.991,-35.68102,-8580.265,-1328.304,-43.61697
0.01657477,-10640.47,-1827.515,-38.54442,-8582.922,-1375.799,-8.31043
0.01657477,-10656.86,-1827.206,-7.643322,-8608.689,-1372.682,61.21039
0.01657297,-10643.22,-1859.065,-7.335904,-8589.288,-1387.77,65.28178
0.01657333,-10593.98,-1840.513,33.65977,-8556.09,-1383.951,72.12691
0.01657392,-10578.68,-1830.82,-29.70131,-8540.121,-1350.403,-34.04371
0.01657392,-10608.75,-1806.233,-37.41347,-8576.567,-1324.982,-90.44858
0.01657561,-10618.96,-1784.661,-50.12393,-8579.958,-1355.423,-24.83772
0.01657399,-10640.39,-1820.23,-26.09438,-8591.876,-1392.059,25.43481
0.01657399,-10639.46,-1808.299,15.88708,-8591.094,-1352.391,27.17088
0.01657241,-10663.17,-1794.573,-2.675658,-8609.125,-1315.633,19.69417
0.01657501,-10667.96,-1771.004,-52.61015,-8612.631,-1283.932,30.69546
0.01657462,-10652.76,-1759.174,-5.235931,-8605.311,-1270.437,47.91502
0.01657277,-10672.54,-1725.866,19.03807,-8620.328,-1242.792,67.83901
0.01657365,-10634.03,-1727.252,56.35794,-8586.348,-1238.963,81.83772
0.01657365,-10612.47,-1724.68,82.38701,-8574.342,-1245.926,96.25627
0.01657378,-10554.63,-1777.958,48.84496,-8534.718,-1280.518,43.8106
0.01657365,-10570.02,-1794.55,98.37881,-8537.898,-1320.672,84.07465
0.01657398,-10611.46,-1816.369,95.73134,-8569.756,-1368.56,58.00621
0.01657398,-10620.39,-1827.336,54.57345,-8576.609,-1421.035,51.09744
0.01657308,-10657.76,-1800.701,29.31872,-8605.139,-1382.099,55.33799
0.0165744,-10667.27,-1819.474,15.97358,-8616.685,-1371.078,50.16009
0.01658485,-10674.82,-1820.851,70.78709,-8622.274,-1382.506,115.6021
0.01658838,-10656.75,-1827.216,94.08758,-8595.006,-1353.695,91.35965
0.01658719,-10614.76,-1759.639,147.3409,-8567.317,-1257.154,135.4284
0.01658719,-10655.69,-1755.805,118.6521,-8598.658,-1293.833,132.8202
0.01658725,-10685.15,-1775.212,92.00156,-8621.073,-1321.284,124.9511
0.01658586,-10653.38,-1750.866,136.7626,-8601.077,-1324.355,168.3713
0.01658685,-10614.76,-1789.873,97.64432,-8562.686,-1355.329,126.8189
0.01658719,-10635.35,-1773.634,84.52815,-8582.96,-1333.169,95.91071
0.01658492,-10628.74,-1783.276,81.89497,-8586.803,-1338.889,86.9626
0.01658492,-10632.82,-1778.778,94.99754,-8585.512,-1363.137,129.3802
0.01658555,-10657.33,-1806.146,55.35114,-8595.376,-1387.57,94.85159
0.01658555,-10643.78,-1830.219,58.88918,-8580.539,-1393.873,65.21098
0.01658716,-10649.04,-1778.323,113.861,-8589.001,-1361.803,159.6302
0.01658597,-10669.9,-1806.935,161.546,-8609.333,-1421.578,255.9013
0.01658597,-10619.99,-1813.719,128.3617,-8579.992,-1381.413,174.939
0.01658673,-10631.95,-1807.227,115.9974,-8575.898,-1364.999,143.4113
0.01658673,-10577.91,-1797.939,107.2697,-8539.13,-1364.792,138.0431
0.01658665,-10602.08,-1791.115,74.30284,-8557.822,-1344.334,118.9212
0.01917191,-10587.72,-1791.008,32.03773,-8546.982,-1321.033,45.18427
0.01917191,-10589.56,-1784.343,8.037888,-8552.985,-1306.623,18.31748
0.016589,-10625.31,-1797.818,13.36095,-8580.404,-1341.409,65.70033
0.01658572,-10598.65,-1842.188,12.22225,-8560.029,-1383.041,54.26219
0.01658562,-10623.02,-1868.336,33.62382,-8583.142,-1389.25,19.87446
0.01658696,-10644,-1842.936,-24.57742,-8594.702,-1398.435,33.84951
0.01658696,-10633.92,-1865.297,-35.70757,-8591.339,-1412.286,-2.311245
0.01658752,-10613.56,-1888.952,-10.92787,-8562.445,-1428.172,20.85955
0.01657471,-10614.76,-1898.591,2.629609,-8567.85,-1445.762,42.79642
0.01657471,-10634.45,-1877.378,8.486183,-8596.204,-1419.279,56.81321
0.01658615,-10632.81,-1860.232,45.88244,-8577.162,-1378.315,68.25962
0.01658615,-10634.83,-1801.135,46.84925,-8578.681,-1308.246,55.94028
0.01658738,-10629.32,-1765.476,24.11146,-8574.45,-1302.328,83.43955
0.01658738,-10601.71,-1770.14,40.71196,-8557.803,-1324.757,80.30182
0.01658617,-10583.52,-1789.762,13.88618,-8548.448,-1296.474,11.31002
0.01658679,-10606.42,-1793.816,-12.17508,-8552.779,-1289.539,-26.69366
0.01658679,-10684.04,-1767.671,-12.16382,-8620.956,-1323.512,62.50677
0.01658726,-10680.58,-1740.677,82.78625,-8604.769,-1298.081,127.2883
0.01658757,-10652.48,-1725.906,133.1858,-8596.431,-1290.385,143.3093
0.01658757,-10658.19,-1709.228,18.73442,-8587.411,-1297.318,39.47828
0.01659032,-10643.46,-1770.209,15.79119,-8593.822,-1324.191,24.32931
0.01659032,-10663.83,-1772.004,17.63594,-8613.76,-1335.026,34.46514
0.01658844,-10637.97,-1769.238,-14.37803,-8580.602,-1346.5,68.56513
0.01658631,-10628.11,-1785.771,39.51271,-8577.521,-1316.74,62.42297
0.01658431,-10622.47,-1767.442,-6.209264,-8577.69,-1281.449,11.98471
0.01658431,-10610.47,-1746.109,60.6074,-8564.146,-1279.154,108.8688
0.01658895,-10641.19,-1740.106,22.69707,-8592.127,-1303.274,103.2777
0.01658525,-10638.21,-1755.374,58.2119,-8589.808,-1308.397,120.0593
0.01658525,-10639.73,-1764.898,105.2081,-8590.947,-1343.144,222.7702
0.01658594,-10568.56,-1803.642,214.3483,-8536.601,-1387.074,295.0605
0.01658693,-10643.53,-1818.213,216.7504,-8594.075,-1379.419,251.7476
0.01658693,-10689.69,-1781.11,215.0219,-8620.378,-1343.133,219.3118
0.01658624,-10697.41,-1767.697,190.7592,-8626.06,-1324.835,211.3647
0.01658561,-10691.56,-1721.607,143.2819,-8625.801,-1312.962,204.3772
0.01658578,-10663.47,-1763.649,156.5277,-8595.314,-1348.541,223.404
0.01658578,-10602.42,-1773.142,202.9368,-8553.11,-1371.274,160.5182
0.01658423,-10599.12,-1766.081,88.10741,-8550.775,-1382.409,-42.26626
0.01658793,-10608.6,-1796.667,-100.9535,-8567.061,-1438.068,-225.9398
0.01658793,-10612.32,-1855.614,-317.7851,-8565.575,-1428.787,-444.1798
0.01659025,-10615.71,-1819.338,-374.1145,-8568.253,-1415.707,-343.2901
0.01659025,-10646.63,-1856.744,-256.2321,-8596.357,-1398.914,-150.466
0.01658886,-10704.64,-1769.428,-77.74218,-8627.271,-1333.427,107.1354
0.01658886,-10667.11,-1736.044,67.25649,-8607.235,-1305.309,269.9908
0.01658615,-10641.69,-1681.548,233.1793,-8587.731,-1271.442,339.599
0.01658752,-10637.84,-1692.616,212.0481,-8580.37,-1250.396,204.2464
0.01658468,-10608.98,-1684.675,110.9293,-8558.366,-1301.506,186.1232
0.01658468,-10614.43,-1699.708,87.74344,-8575.962,-1298.834,137.5387
0.01658706,-10691.13,-1742.188,96.83958,-8621.282,-1297.12,83.05779
0.01658706,-10675.76,-1723.25,25.11629,-8604.926,-1349.78,155.6162
0.01658693,-10629.89,-1756.93,58.42011,-8574.232,-1374.387,165.7131
0.01658731,-10602.03,-1759.026,69.28879,-8557.467,-1350.662,60.00683
0.01658731,-10637,-1769.6,61.52613,-8588.746,-1379.168,21.73571
0.01658501,-10669.81,-1784.632,-36.29916,-8613.786,-1454.202,-4.593139
0.01658501,-10751.99,-1761.979,-33.87589,-8667.527,-1562.599,-155.2173
0.01658565,-10708.51,-1896.532,-218.2668,-8642.793,-1496.989,-177.2931
0.01658727,-10700.42,-1836.829,-191.9537,-8640.831,-1419.827,-152.5499
0.0165845,-10648.88,-1798.574,-183.2053,-8592.458,-1395.68,-114.5758
0.01659067,-10501.13,-1809.941,-123.5424,-8475.309,-1454.158,-148.435
0.01659067,-10552.79,-1845.642,-117.9007,-8519.807,-1388.983,-155.2421
0.01658518,-10685.83,-1826.643,-93.81688,-8621.716,-1413.422,-37.52118
0.01658518,-10755.91,-1793.171,-77.79549,-8675.009,-1463.923,155.1038
0.01658699,-10672.17,-1843.875,83.6991,-8615.083,-1549.844,324.5269
0.01658606,-10656.11,-1856.038,148.0526,-8593.88,-1490.849,273.4426
0.01658606,-10628.81,-1805.037,115.67,-8581.911,-1359.42,161.0734
0.01658647,-10621.96,-1748.883,34.59659,-8567.911,-1276.281,5.038796
0.01658648,-10650.15,-1659.11,-74.86565,-8593.989,-1184.384,-172.6393
0.01658534,-10684.51,-1597.342,-138.2001,-8615.787,-1228.593,-9.557488
0.01658529,-10685.56,-1615.359,-45.07166,-8616.463,-1237.825,49.42895
0.0165875,-10640.54,-1665.162,-37.57816,-8581.979,-1257.055,-11.04889
0.01658927,-10629.72,-1672.542,-33.91371,-8573.791,-1277.755,69.40873
0.01658646,-10639.07,-1678.722,-23.35832,-8585.463,-1264.477,26.42031
0.01658646,-10598.2,-1657.762,-23.04345,-8549.885,-1253.733,-11.28476
0.01605439,-10637.65,-1662.049,-62.90615,-8580.203,-1297.195,-12.5517
0.01605439,-10655.36,-1660.057,-134.6068,-8593.757,-1268.425,-66.84561
0.01658773,-10639.11,-1699.189,-149.1515,-8594.609,-1250.602,-147.6006
0.01658773,-10660.81,-1691.243,-151.6542,-8602.31,-1256.598,-177.4541
0.01658791,-10648.91,-1641.7,-199.3654,-8593.164,-1260.186,-116.348
0.01658423,-10702.83,-1646.897,-97.77337,-8638.738,-1186.828,-160.1674
0.01658423,-10680.99,-1630.98,-85.56492,-8612.976,-1184.446,-143.6029
0.01658463,-10707.68,-1595.186,-116.9567,-8628.825,-1176.308,-171.7722
0.01658463,-10712.98,-1566.123,-171.4112,-8632.69,-1175.857,-237.1038
0.01658792,-10698.03,-1618.296,-177.6426,-8616.663,-1241.311,-210.8402
0.01658861,-10631.38,-1653.035,-162.5955,-8574.556,-1219.76,-260.388
0.01658861,-10604.83,-1613.359,-185.624,-8558.88,-1113.121,-320.4133
0.01658802,-10599.72,-1569.793,-234.2608,-8546.341,-990.809,-462.1687
0.01658554,-10582.62,-1512.353,-211.0578,-8529.099,-1049.327,-277.874
0.01658511,-10652.81,-1499.118,-193.5956,-8591.83,-1058.138,-259.9913
0.0165854,-10582.28,-1610.606,22.01305,-8546.822,-1218.312,-9.002022
0.0165854,-10567.99,-1682.203,78.22572,-8531.711,-1305.283,86.86386
0.01658653,-10609.87,-1723.978,131.7153,-8563.943,-1288.559,72.11253
0.01658682,-10621.34,-1725.122,192.4858,-8568.338,-1275.436,114.1853
0.01658682,-10649.11,-1708.052,202.4803,-8589.566,-1292.794,165.5736
0.01658612,-10661.96,-1680.017,274.9803,-8603.728,-1244.766,255.7945
0.01658612,-10653.83,-1667.491,381.3974,-8588.533,-1227.887,366.1318
0.01658232,-10646.56,-1695.514,405.3856,-8582.921,-1281.364,348.4169
0.01658553,-10614.54,-1698.569,422.3462,-8558.448,-1273.511,387.823
0.01658436,-10638,-1643.621,332.4243,-8580.885,-1249.944,340.1439
0.01658915,-10628.58,-1631.125,351.3388,-8573.68,-1224.628,336.6718
0.01658703,-10599.82,-1650.609,362.0881,-8556.186,-1225.19,315.9666
0.01658703,-10602.07,-1616.739,353.128,-8544.727,-1163.371,293.6358
0.0165865,-10604.51,-1558.585,275.5134,-8546.719,-1137.782,244.2593
0.0165865,-10603.93,-1556.031,278.3669,-8559.677,-1110.197,218.4326
0.01658777,-10610.6,-1518.74,246.1681,-8564.834,-1098.773,152.9185
0.01658139,-10645.6,-1550.384,221.4999,-8587.155,-1146.673,171.2154
0.01658139,-10626.03,-1562.959,182.3613,-8567.694,-1128.832,98.16042
0.0165832,-10637.72,-1565.063,172.1281,-8581.048,-1123.2,47.96754
0.01658934,-10698.85,-1551.016,223.8239,-8623.223,-1074.482,130.7295
0.01658719,-10704.27,-1480.837,210.7964,-8631.518,-1097.966,290.3179
0.01658784,-10658.26,-1468.221,310.5228,-8591.697,-1057.161,341.4962
0.01658784,-10619.96,-1489.543,363.4864,-8566.834,-1027.658,268.6151
0.01612791,-10634.25,-1458.559,367.0001,-8573.396,-1021.067,281.6234
0.01612791,-10634.87,-1456.231,410.8152,-8578.338,-1007.578,339.5338
0.01657749,-10655.29,-1392.106,481.0741,-8593.94,-952.4423,293.1053
0.01657749,-10681.57,-1351.704,338.5295,-8622.8,-961.8753,239.6332
0.01657646,-10671.36,-1344.117,345.0934,-8610.394,-925.7258,206.8568
0.01657646,-10651.77,-1411.327,288.9267,-8590.904,-1029.505,114.3608
0.01657711,-10626.87,-1469.993,209.5403,-8567.45,-1137.39,175.3515
0.01657711,-10637.81,-1518.094,254.3255,-8575.9,-1176.444,212.5903
0.01657877,-10631.03,-1531.033,272.948,-8575.2,-1164.39,148.2257
0.01657767,-10638.31,-1513.739,335.7343,-8576.376,-1136.495,242.5742
0.01657767,-10644.78,-1533.197,355.7068,-8581.347,-1143.432,246.5499
0.01657905,-10628.65,-1557.128,364.0548,-8564.603,-1182.823,242.4528
0.01657905,-10577.13,-1576.982,330.7881,-8538.646,-1181.873,168.9405
0.01657788,-10616.22,-1565.942,380.9037,-8555.42,-1156.782,192.2905
0.01657788,-10578.19,-1505.52,423.0348,-8522.053,-1140.639,166.1774
0.01657814,-10600.53,-1565.143,293.2282,-8548.195,-1155.387,-33.84828
0.01657678,-10650.56,-1571.814,209.3957,-8595.354,-1125.127,-35.19576
0.01657678,-10707.59,-1559.61,223.5294,-8634.333,-1161.679,177.9348
0.01657671,-10726.03,-1566.39,383.5424,-8643.656,-1145.102,388.0049
0.01657738,-10655.26,-1495.973,541.4464,-8589.296,-1065.206,507.2928
0.01657738,-10660.13,-1460.518,659.1912,-8588.548,-1085.73,599.5533
0.01657719,-10701.61,-1496.422,710.4774,-8629.038,-1090.382,636.8828
0.01657719,-10629.36,-1523.376,686.4421,-8569.246,-1126.034,570.7185
0.01657786,-10575.93,-1504.116,627.8651,-8537.419,-1109.642,461.6627
0.01657786,-10614.99,-1533.716,497.0929,-8554.214,-1145.582,363.9117
0.01657854,-10603.61,-1547.839,470.8539,-8554.51,-1157.096,370.3428
0.01658021,-10626.13,-1506.653,491.2107,-8567.402,-1102.528,383.8704
0.01658021,-10644.91,-1471.605,597.8016,-8581.776,-1077.244,466.48
0.01657787,-10625.97,-1476.833,561.895,-8562.852,-1095.563,407.519
0.01657787,-10672.46,-1516.479,547.4835,-8602.822,-1133.988,404.5589
0.01657779,-10609.86,-1546.951,547.2188,-8559.327,-1199.29,428.5267
0.01657824,-10638.7,-1565.659,559.7849,-8572.582,-1195.31,428.746
0.01657824,-10655.5,-1539.071,659.4064,-8585.405,-1160.905,511.4779
0.01657621,-10638.66,-1519.268,594.7142,-8581.354,-1160.645,458.4444
0.01657704,-10632.22,-1553.362,564.8834,-8576.427,-1130.956,374.737
0.01657704,-10636.22,-1528.363,490.8158,-8566.198,-1121.797,363.8939
0.01657935,-10635.06,-1532.462,533.6616,-8569.774,-1146.282,466.2925
0.01657606,-10647.79,-1510.184,630.7299,-8583.939,-1127.302,529.7014
0.01657899,-10626.47,-1514.545,644.4194,-8567.62,-1117.119,486.7617
0.01657899,-10655.01,-1587.687,570.1591,-8585.018,-1140.612,446.6004
0.01658623,-10630.6,-1523.54,593.6019,-8566.327,-1108.392,490.7218
0.01657895,-10656.21,-1497.84,648.1976,-8590.349,-1075.556,513.8941
0.01657895,-10603.63,-1486.198,607.9466,-8559.001,-1083.482,468.1248
0.01657823,-10578.64,-1491.351,552.8137,-8535.613,-1127.476,369.6808
0.01658126,-10611.92,-1530.631,466.5838,-8561.222,-1209.578,324.8449
0.01657793,-10621.62,-1598.8,547.9668,-8559.823,-1241.174,430.0905
0.01657793,-10613.94,-1590.43,580.9322,-8558.428,-1203.908,437.8199
0.01657726,-10628.43,-1566.044,576.8013,-8565.111,-1202.475,399.9731
0.01657844,-10601.42,-1619.036,555.6055,-8548.926,-1233.325,371.0813
0.01657844,-10616.82,-1635.646,583.4762,-8560.774,-1241.228,421.5694
0.01657946,-10656.94,-1624.699,587.7367,-8595.852,-1262.146,502.315
0.01657844,-10631.58,-1576.097,664.8213,-8571.921,-1198.669,540.9774
0.01657844,-10623.2,-1582.818,660.7019,-8565.51,-1181.858,484.4737
0.01657842,-10600.59,-1556.618,682.5054,-8539.396,-1153.795,511.9186
0.01657749,-10603.98,-1554.058,682.0966,-8550.971,-1155.255,501.0054
0.01657749,-10626.22,-1526.46,583.7008,-8568.016,-1132.609,435.3008
0.0165763,-10629.28,-1502.667,638.7352,-8570.332,-1107.429,451.0963
0.01657656,-10609.97,-1523.554,586.5076,-8546.704,-1124.473,409.5026
0.01657656,-10606.35,-1546.742,580.293,-8552.872,-1145.377,430.1069
0.01657809,-10585.65,-1604.892,565.1534,-8532.694,-1223.875,412.2773
0.01658757,-10616.88,-1631.489,568.2861,-8556.666,-1271.059,421.4736
0.01658757,-10602,-1630.643,603.1433,-8549.744,-1273.343,487.7987
0.0165851,-10615.58,-1604.323,724.6995,-8560.163,-1241.266,575.7558
0.0165851,-10622.45,-1587.317,804.7456,-8560.962,-1173.261,578.6879
0.01658327,-10610.85,-1535.268,742.0201,-8552.084,-1157.647,581.3664
0.01658307,-10598.53,-1583.307,678.2046,-8551.572,-1154.045,482.0489
0.01658587,-10634.75,-1542.94,684.0632,-8570.402,-1133.531,545.9975
0.01658587,-10638.01,-1552.901,684.0557,-8586.108,-1149.899,594.2418
0.01658363,-10616.69,-1512.366,751.6957,-8556.428,-1093.856,573.2872
0.01658623,-10610.59,-1547.32,755.205,-8556.221,-1133.856,585.2943
0.01658402,-10591.63,-1559.227,737.4305,-8541.771,-1164.653,592.6923
0.01658673,-10588.42,-1586.131,707.3279,-8534.985,-1234.486,539.5038
0.01658673,-10606.6,-1678.148,652.1111,-8557.834,-1389.535,503.9184
0.01658461,-10618.56,-1763.965,752.39,-8566.971,-1385.069,564.5219
0.01658461,-10665.4,-1697.635,829.5584,-8598.247,-1329.458,717.0728
0.01658202,-10639.28,-1645.692,761.7084,-8582.535,-1226.747,639.9133
0.01658565,-10642.66,-1594.657,764.3209,-8580.591,-1158.354,589.2388
0.01658565,-10625.57,-1581.265,744.1602,-8567.462,-1167.155,594.9935
0.01658262,-10599.99,-1592.623,761.7204,-8543.499,-1146.646,597.4645
0.01658262,-10607.23,-1556.063,742.3942,-8549.12,-1141.908,596.1226
0.0165812,-10628.21,-1510.602,726.8602,-8574.061,-1110.502,563.3946
0.016582,-10629.54,-1529.064,690.7414,-8566.16,-1103.105,514.5171
0.01658392,-10614.6,-1539.253,687.8721,-8559.16,-1128.932,533.5773
0.01658392,-10632.53,-1564.79,671.5999,-8568.438,-1177.991,554.5341
0.01658507,-10604.14,-1582.439,719.895,-8551.163,-1188.716,559.9418
0.01658514,-10590.98,-1573.99,724.0235,-8541.184,-1190.812,563.6356
0.01658514,-10566.84,-1561.169,732.362,-8514,-1176.294,529.5383
0.01658493,-10570.62,-1558.956,690.7811,-8530.387,-1151.38,459.0601
0.01658493,-10638.7,-1511.178,682.5296,-8578.068,-1118.328,470.7634
0.01658576,-10615.26,-1478.391,713.899,-8564.479,-1099.655,486.361
0.01658423,-10614.79,-1485.505,694.941,-8546.364,-1069.425,372.2983
0.01658528,-10625.31,-1508.159,539.338,-8572.13,-1117.541,341.435
0.01658528,-10654.93,-1550.713,523.1482,-8590.246,-1133.571,407.6513
0.01658487,-10647.58,-1564.117,591.055,-8575.608,-1157.116,544.7885
0.01658487,-10552.08,-1566.569,654.0102,-8502.609,-1150.616,603.1345
0.01658542,-10524.17,-1500.614,751.6217,-8490.45,-1057.85,590.7325
0.01658542,-10527.4,-1503.022,764.9874,-8484.389,-1075.227,563.1666
0.01658534,-10519.76,-1519.894,786.7617,-8483.293,-1104.121,568.6812
0.01658508,-10512.58,-1546.558,769.5859,-8473.674,-1183.014,634.4482
0.01658444,-10531.01,-1572.475,786.2795,-8496.898,-1172.745,544.3129
0.01658381,-10597.72,-1542.289,779.0938,-8543.562,-1164.778,544.4488
0.01658587,-10633.35,-1549.42,700.3752,-8588.394,-1205.059,543.1929
0.01658388,-10644.14,-1564.586,691.6883,-8574.217,-1179.089,524.4039
0.01658388,-10637.49,-1544.579,678.4998,-8568.914,-1168.965,557.9035
0.01658031,-10616.63,-1547.866,735.1993,-8552.821,-1146.234,559.1156
0.01658451,-10605.34,-1544.874,757.0729,-8557.424,-1132.329,542.7579
0.01658451,-10585.54,-1542.032,753.3084,-8528.971,-1155.963,557.513
0.01658306,-10557.17,-1588.926,742.3328,-8502.945,-1167.381,566.1951
0.01658306,-10565.12,-1587.562,773.2516,-8513.617,-1175.073,579.4538
0.0165865,-10580.06,-1563.404,784.3209,-8529.563,-1167.304,602.1245
0.0165865,-10580.12,-1538.572,859.0369,-8534.074,-1155.781,678.3086
0.01656349,-10564.76,-1565.237,776.109,-8522.37,-1150.969,572.6498
0.01658082,-10588.01,-1538.275,791.5141,-8531.327,-1108.772,564.9546
0.01658054,-10613.7,-1516.084,787.7574,-8550.935,-1082.003,596.3533
0.01658054,-10596.48,-1502.479,822.7397,-8546.555,-1090.406,651.7291
0.01658132,-10575.36,-1509.143,848.191,-8530.388,-1071.892,622.3759
0.01658124,-10563.02,-1501.847,827.6469,-8516.585,-1097.285,619.9966
0.01658124,-10591.33,-1513.7,834.486,-8542.718,-1116.735,642.1977
0.01658003,-10604.66,-1528.667,808.0331,-8548.427,-1125.183,635.6192
0.01658003,-10585.69,-1538.472,864.8871,-8533.877,-1145.695,681.3718
0.01657655,-10600.04,-1558.549,857.4566,-8544.84,-1172.042,753.7311
0.01658225,-10612.81,-1580.777,930.1049,-8550.114,-1125.436,746.9698
0.01658045,-10595.72,-1550.547,949.8306,-8545.849,-1116.13,737.9415
0.01658045,-10587.99,-1526.821,913.5778,-8526.632,-1111.052,709.208
0.01658301,-10581.07,-1514.15,869.0912,-8525.817,-1111.148,677.1553
0.01657979,-10580.5,-1563.066,857.7246,-8534.292,-1161.32,660.3361
0.01658036,-10579.26,-1580.294,864.7473,-8528.941,-1175.723,651.5349
0.01658122,-10568.56,-1592.232,779.3239,-8520.809,-1222.314,606.5185
0.01658142,-10556.87,-1619.838,696.3834,-8511.962,-1248.352,545.6805
0.01658061,-10569.05,-1632.724,879.6886,-8521.367,-1214.879,627.9823
0.01658121,-10648.31,-1621.187,860.6332,-8590.786,-1219.351,767.3314
0.01657963,-10661.29,-1585.577,947.0181,-8582.691,-1194.415,793.5907
0.01657963,-10597.22,-1605.163,944.3792,-8546.818,-1177.428,700.1798
0.01658083,-10601.86,-1594.286,858.1556,-8545.921,-1180.952,639.6215
0.01657983,-10613.34,-1583.629,810.7503,-8541.37,-1196.3,653.6319
0.01657983,-10598.74,-1590.882,839.34,-8552.354,-1181.279,649.274
0.0165794,-10581.65,-1548.321,864.8745,-8521.562,-1150.415,679.9077
0.0165843,-10603.59,-1484.94,873.86,-8547.253,-1073.634,820.7458
0.0165807,-10537.93,-1561.745,973.5283,-8501.538,-1149.019,758.7867
0.01657819,-10567.41,-1599.569,926.7467,-8515.396,-1186.241,739.5488
0.01658089,-10570.37,-1616.857,904.0132,-8522.188,-1177.708,656.8776
0.01658122,-10552.38,-1623.479,818.5819,-8499.66,-1187.894,612.7388
0.01658122,-10564.09,-1620.038,800.6138,-8513.181,-1192.868,605.418
0.01658062,-10583.39,-1578.278,805.3211,-8527.989,-1147.28,579.7009
0.01658027,-10526.04,-1562.273,797.0637,-8488.639,-1141.222,616.6615
0.01657893,-10548.19,-1571.04,832.2593,-8496.893,-1137.772,611.358
0.01657893,-10566.82,-1588.427,864.9109,-8520.095,-1191.84,735.0228
0.01657974,-10595.68,-1555.515,916.1673,-8537.705,-1149.739,764.7923
0.01658161,-10579.16,-1549.961,920.8471,-8520.574,-1106.539,732.2697
0.01658255,-10595.95,-1554.747,903.4186,-8537.815,-1139.184,748.8888
0.01658255,-10605.74,-1586.48,938.0491,-8540.781,-1185.37,744.6216
0.01657964,-10581.32,-1604.019,918.9813,-8526.474,-1217.772,695.4498
0.01658104,-10574.79,-1634.162,895.6321,-8525.919,-1234.77,664.2388
0.01658104,-10587.68,-1647.993,821.9201,-8531.333,-1242.282,634.8724
0.01658236,-10610.62,-1627.956,811.8886,-8557.683,-1201.77,644.0857
0.01658174,-10601.86,-1594.586,808.105,-8541.993,-1173.679,658.0413
0.01658174,-10595.31,-1580.853,822.3034,-8545.797,-1141.891,683.4594
0.01657907,-10588.2,-1556.639,808.6083,-8531.451,-1117.987,676.9553
0.01657907,-10623.74,-1614.997,783.8021,-8563.014,-1200.41,699.671
0.01657916,-10637.79,-1624.805,805.7303,-8573.587,-1181.189,806.2394
0.01658188,-10603.59,-1559.038,907.0601,-8542.87,-1158.597,985.8604
0.01658253,-10695.26,-1567.34,749.0776,-8612.819,-1075.593,966.67
0.0165814,-10602.2,-1487.454,1025.387,-8541.412,-1025.131,1200.516
0.0165814,-10643.93,-1513.622,1043.43,-8568.861,-1048.676,1178.542
0.01658053,-10607.2,-1533.138,1115.022,-8549.566,-1088.303,1159.11
0.01658137,-10552.56,-1509.398,1146.493,-8512.293,-1116.899,1045.38
0.01657888,-10516.48,-1504.87,1031.875,-8476.101,-1149.325,829.0438
0.01657888,-10541.2,-1547.503,826.2719,-8490.878,-1104.673,533.0031
0.01658097,-10640.26,-1435.849,625.0648,-8562.284,-969.6702,305.1239
0.01657978,-10695.86,-1452.764,501.294,-8608.98,-1000.084,312.2118
0.01657978,-10620.44,-1437.743,399.0676,-8551.028,-966.8995,362.3768
0.01658029,-10632.51,-1435.016,481.486,-8560.198,-969.192,406.5983
0.01658068,-10633.9,-1469.367,514.5444,-8565.602,-1054.848,502.6823
0.01658068,-10602.49,-1538.415,565.8099,-8537.099,-1100.483,602.2639
0.01658068,-10613.95,-1487.917,699.0602,-8545.893,-1029.125,686.7266
0.01658242,-10553.1,-1382.477,730.4478,-8503.878,-1000.856,707.5909
0.01658279,-10471.31,-1385.648,653.2024,-8441.669,-995.1113,506.1186
0.01658279,-10590.39,-1460.307,430.7564,-8533.073,-922.0359,239.3104
0.01658154,-10629.36,-1369.269,444.067,-8562.814,-895.5405,256.504
0.01658154,-10682.99,-1357.329,500.6691,-8603.601,-1004.968,307.3451
0.01657616,-10662.9,-1438.089,456.3521,-8583.494,-1114.529,371.8987
0.01657616,-10704.88,-1486.352,388.0363,-8624.188,-1066.731,328.2533
0.01658062,-10678.04,-1432.983,469.6834,-8594.463,-1005.908,381.2377
0.01658376,-10652.84,-1438.605,427.7169,-8579.453,-1019.736,318.1497
0.01658376,-10563.7,-1447.047,472.0921,-8520.171,-963.376,336.9287
0.01658092,-10467.59,-1449.488,597.7617,-8429.321,-991.7157,251.3793
0.01658092,-10513.9,-1448.007,508.2612,-8469.71,-1110.585,313.8611
0.01657842,-10622.75,-1526.635,470.082,-8566.454,-1168.749,243.2645
0.01658072,-10657.92,-1567.351,415.5178,-8584.311,-1183.573,213.8122
0.01658072,-10674.67,-1620.229,450.1909,-8601.305,-1194.041,296.909
0.01658283,-10695.15,-1588.82,485.3875,-8612.226,-1125.97,376.4711
0.01658283,-10687.67,-1480.959,578.4985,-8606.202,-1035.831,454.8062
0.0165811,-10618.54,-1465.26,640.3575,-8557.613,-1019,489.7968
0.01657651,-10602.42,-1434.853,681.0283,-8536.477,-944.1922,484.8981
0.01657651,-10527.63,-1452.224,672.3004,-8483.936,-999.1227,507.0774
0.01657559,-10568.67,-1462.371,731.9676,-8506.771,-1070.213,518.0667
0.01658222,-10539.83,-1533.42,674.3981,-8493.817,-1109.489,598.993
0.01658222,-10490.31,-1559.915,760.1157,-8456.283,-1184.587,592.108
0.01657926,-10511.88,-1582.61,706.4803,-8468.735,-1191.778,541.3403
0.01658262,-10545,-1624.192,754.7162,-8494.323,-1235.249,576.9434
0.01658262,-10583.58,-1651.312,731.5693,-8532.778,-1264.22,559.3031
0.01657983,-10593.04,-1657.297,671.1318,-8535.531,-1221.335,527.1912
0.01657716,-10634.96,-1584.053,564.419,-8567.472,-1138.619,504.8637
0.01657777,-10495.24,-1587.079,671.5583,-8451.739,-1022.846,559.6563
0.01657777,-10576.5,-1494.173,748.7358,-8522.996,-1056.779,551.3311
0.01658176,-10611.12,-1547.024,748.6525,-8549.409,-1097.941,620.7234
0.01657995,-10589.1,-1518.754,762.531,-8528.031,-1139.262,636.4014
0.01657995,-10573.8,-1564.791,756.3128,-8511.897,-1179.662,548.9301
0.01658187,-10592.51,-1540.132,647.0175,-8539.515,-1120.489,548.1014
0.01658046,-10544.91,-1521.426,842.5135,-8498.682,-1223.375,669.9556
0.01658046,-10599.09,-1585.615,824.3519,-8531.312,-1244.776,614.7343
0.01658266,-10615.14,-1600.53,720.7015,-8552.358,-1216.767,518.8619
0.01657961,-10654.37,-1565.499,687.2429,-8577.73,-1172.859,499.4806
0.01658322,-10632.52,-1545.096,674.8013,-8560.792,-1173.829,514.2512
0.01658322,-10585.05,-1552.461,676.2968,-8533.265,-1127.915,502.5233
0.0165793,-10579.51,-1485.249,666.3726,-8515.768,-1072.245,490.6712
0.0165793,-10559.54,-1452.939,641.9844,-8509.464,-885.0618,631.2108
0.01658008,-10636.83,-1298.253,869.1339,-8568.576,-952.2159,660.7625
0.0165788,-10659.73,-1394.908,934.2933,-8581.444,-1044.315,776.0563
0.0165788,-10698.13,-1428.151,838.7657,-8619.373,-1044.853,766.151
0.01658197,-10690.21,-1426.617,721.9448,-8617.372,-969.1608,759.1536
0.01658197,-10584.2,-1380.162,837.0176,-8522.841,-850.1848,883.2463
0.01657909,-10575.13,-1299.798,978.8322,-8524.924,-894.528,848.3517
0.0165826,-10563.58,-1344.478,951.1307,-8507.4,-924.0865,741.5314
0.0165826,-10508.28,-1387.556,882.0722,-8465.38,-922.5494,717.6452
0.01609486,-10603.91,-1331.346,844.6618,-8547.626,-960.5731,709.5884
0.01658218,-10663.52,-1350.844,840.5544,-8588.651,-962.7742,743.1424
0.01658218,-10658.1,-1297.406,772.9832,-8579.83,-969.8714,766.4216
0.01656976,-10644.49,-1302.074,770.7786,-8555.95,-939.691,727.2664
0.01657303,-10623.89,-1328.073,766.2958,-8553.427,-979.5455,623.0518
0.01657303,-10627.46,-1351.008,670.1563,-8556.118,-980.8748,570.6969
0.01657322,-10653.85,-1343.263,743.649,-8580.646,-962.0397,610.4534
0.01657044,-10681.33,-1367.765,724.5011,-8597.044,-999.7177,578.9137
0.01657044,-10679.24,-1416.545,677.4388,-8590.79,-1057.715,555.5079
0.01657085,-10684.23,-1436.325,633.4043,-8598.842,-1069.802,507.942
0.01657292,-10670.25,-1449.71,662.9788,-8583.544,-1109.091,569.6127
0.01657636,-10621.86,-1420.688,641.8691,-8555.362,-1103.184,555.4946
0.01657636,-10655.74,-1453.56,605.9754,-8581.295,-1101.71,488.5891
0.01657257,-10651.16,-1441.041,538.7216,-8582.155,-1061.673,462.738
0.01657071,-10630.71,-1399.152,578.3818,-8566.494,-1031.768,488.4487
0.01657079,-10680.79,-1421.701,653.9691,-8600.319,-1006.078,523.364
0.01657079,-10654.46,-1355.538,668.7203,-8571.202,-931.2349,605.9918
0.01657023,-10642.11,-1345.115,686.5193,-8570.627,-1000.886,640.0266
0.0165682,-10637.26,-1339.91,683.6125,-8566.931,-986.0009,566.1993
0.01657091,-10664.37,-1365.274,654.8139,-8583.225,-983.9528,498.8302
0.01656923,-10693.39,-1348.327,642.2591,-8614.172,-965.8772,495.8588
0.01656923,-10643.77,-1336.899,601.4744,-8558.379,-999.9907,548.0615
0.01656799,-10609.97,-1396.374,636.1094,-8537.074,-1037.471,530.9321
0.01657127,-10610.46,-1416.095,605.4124,-8537.618,-1049.923,514.8369
0.01657532,-10608.82,-1424.345,612.1563,-8545.382,-1073.502,505.5283
0.01657532,-10654.78,-1437.736,601.9221,-8576.149,-1072.703,505.6756
0.01657262,-10622.88,-1440.213,592.2805,-8551.747,-1086.835,507.1054
0.0165714,-10631.97,-1458.54,588.047,-8558.752,-1090.896,480.255
0.0165714,-10621.85,-1433.682,616.4924,-8546.627,-1044.246,473.1347
0.01657148,-10623.72,-1426.688,603.4718,-8561.423,-1039.113,550.0573
0.01656803,-10655.02,-1417.178,640.2273,-8576.48,-1012.983,544.614
0.01657118,-10664.26,-1427.129,601.6589,-8579.023,-1043.887,598.2042
0.01657265,-10645.06,-1435.23,643.7076,-8564.277,-1014.571,536.0496
0.01657559,-10603.85,-1409.463,592.7631,-8546.105,-997.3983,473.0399
0.01657311,-10644.34,-1413.033,556.9402,-8563.844,-999.6661,438.9962
0.01657311,-10656.8,-1384.936,557.8335,-8577.765,-1033.129,514.2533
0.01657251,-10655.2,-1418.366,552.4645,-8576.467,-1084.453,508.3598
0.01657251,-10633.09,-1445.329,559.1915,-8555.103,-1032.331,441.6398
0.01656952,-10573.57,-1461.847,633.5737,-8509.713,-1092.232,513.367
0.01657199,-10677.57,-1391.152,610.8676,-8593.796,-1033.055,501.7746
0.01657199,-10674.2,-1402.422,582.0571,-8591.046,-1021.796,490.036
0.01657039,-10611.01,-1390.553,572.0593,-8542.676,-1006.992,459.5102
0.01657194,-10586.29,-1434.737,503.4482,-8523.919,-1062.997,414.5109
0.01657161,-10602.05,-1435.406,529.2374,-8531.716,-1047.888,376.7134
0.01657161,-10636.95,-1401.612,512.8914,-8562.919,-1021.749,416.1358
0.01657644,-10645.3,-1382.781,501.2885,-8560.398,-1012.432,423.9103
0.01657644,-10615.64,-1396.827,494.2302,-8542.145,-1006.384,391.371
0.01657926,-10595.08,-1393.404,492.9238,-8526.525,-989.1874,415.9021
0.01657926,-10586.6,-1382.59,552.9482,-8520.186,-1005.159,479.96
0.01657838,-10602.96,-1381.635,541.0059,-8523.967,-997.0551,384.3769
0.01657838,-10600.41,-1356.717,511.2214,-8535.418,-1006.95,396.1714
0.01658844,-10604.82,-1319.011,527.1152,-8543.277,-990.4849,431.2173
0.01657792,-10600.9,-1410.785,551.8077,-8535.887,-1063.818,458.4438
0.01657792,-10615.24,-1422.464,533.8273,-8546.885,-1043.502,421.6806
0.01657993,-10631.41,-1421.189,515.7274,-8559.218,-1019.982,398.523
0.01657993,-10642.99,-1365.467,542.4741,-8559.13,-1003.989,452.8843
0.01658034,-10653.91,-1399.869,535.3139,-8576.243,-1002.113,411.0995
0.01657815,-10651.36,-1399.574,516.692,-8574.156,-1029.338,395.5747
0.01657815,-10657.4,-1324.007,509.3849,-8578.652,-991.2885,452.7287
0.01658234,-10644.09,-1370.433,550.9453,-8555.079,-1022.235,423.813
0.01658309,-10650.38,-1378.647,562.0262,-8577.577,-1048.195,438.0753
0.01658309,-10630.96,-1412.87,535.2115,-8553.796,-1087.559,494.5337
0.01657955,-10633.81,-1460.516,601.569,-8560.421,-1092.701,448.124
0.01658442,-10659.92,-1424.257,575.8434,-8580.345,-1106.269,472.648
0.01658442,-10652.91,-1461.002,519.1473,-8579.315,-1110.28,428.4045
0.01657836,-10646.5,-1434.971,516.3931,-8561.051,-1083.759,401.7521
0.01657836,-10564.92,-1449.968,514.9808,-8507.627,-1075.96,373.9634
0.01657549,-10642.85,-1420.588,482.8392,-8558.525,-1059.49,367.0792
0.01658476,-10641.91,-1384.689,452.3679,-8566.64,-1016.556,328.2975
0.01658112,-10651.4,-1350.869,518.3539,-8564.978,-1000.308,413.1177
0.01657965,-10654.5,-1328.716,494.6917,-8571.721,-995.2746,439.66
0.01657965,-10638.54,-1341.771,501.7254,-8555.035,-954.2792,381.8879
0.01657884,-10616.91,-1310.709,535.1611,-8538.533,-959.4055,431.346
0.01657884,-10622.09,-1340.464,545.2549,-8551.443,-983.8336,476.0859
0.01658017,-10638.67,-1369.327,594.8203,-8564.136,-1012.966,468.8642
0.01658017,-10626.2,-1370.618,579.0471,-8545.729,-1047.218,460.4434
0.01658003,-10603.29,-1360.232,556.9017,-8537.147,-1076.627,489.0585
0.01658003,-10661.08,-1376.009,568.6556,-8581.368,-1083.318,449.1113
0.01657587,-10701.46,-1336.684,505.8443,-8612.059,-1039.324,393.5963
0.01658452,-10680.36,-1325.225,492.3255,-8591.257,-1017.351,411.4246
0.01658452,-10637.69,-1371.687,491.7287,-8558.538,-1031.624,434.655
0.01657946,-10631.5,-1357.125,529.5397,-8558.28,-993.3563,374.1402
0.01658013,-10621.38,-1321.289,526.5413,-8541.733,-981.0642,398.8413
0.01658013,-10621,-1356.4,490.1313,-8537.107,-1031.604,442.8423
0.01657882,-10636.39,-1367.391,523.8593,-8553.387,-1021.151,366.1501
0.01657882,-10684.33,-1360.485,497.402,-8598.855,-1042.181,376.8278
0.01658105,-10706.76,-1335.556,490.2267,-8611.357,-1038.62,415.2583
0.01657858,-10693.92,-1341.717,482.0531,-8601.313,-1028.392,444.5312
0.01657858,-10671.65,-1332.811,515.5528,-8593.011,-984.2368,424.6892
0.01647538,-10644.15,-1303.588,511.4166,-8563.078,-950.1672,418.4653
0.01647538,-10644.55,-1316.559,614.1131,-8563.435,-985.8162,496.8604
0.0165774,-10664.81,-1334.025,628.3078,-8583.375,-1040.823,555.4959
0.0165774,-10655.66,-1336.217,579.6105,-8571.907,-1043.839,513.6614
0.01657832,-10620.29,-1356.198,550.6298,-8540.482,-1006.144,420.3837
0.01657832,-10601.93,-1341.735,556.7982,-8531.041,-946.3583,373.3441
0.01657752,-10619.27,-1367.03,492.1147,-8540.041,-1006.264,346.8097
0.01657752,-10691.64,-1379.621,456.6187,-8599.829,-1039.65,361.2929
0.01657733,-10702.88,-1361.832,505.714,-8599.361,-1016.239,359.4854
0.016581,-10670.2,-1399.26,522.2523,-8578.654,-1069.977,429.0709
0.01658084,-10631.02,-1401.391,517.9013,-8548.699,-1088.821,464.498
0.01657924,-10605.98,-1393.396,556.0079,-8529.688,-1040.924,397.6679
0.01657924,-10612.67,-1372.124,510.3614,-8534.981,-1010.184,334.5627
0.01658088,-10663.4,-1368.553,487.7613,-8582.71,-1030.193,364.8968
0.01658229,-10663.3,-1338.438,485.7009,-8569.247,-986.6956,391.7548
0.01658229,-10624.13,-1339.63,500.8394,-8543.736,-968.6434,358.5503
0.01658235,-10652.34,-1309.37,496.6083,-8569.794,-965.1014,402.2626
0.01658014,-10622.41,-1312.433,558.9167,-8542.482,-962.1238,462.5968
0.01658014,-10602.7,-1345.814,614.8328,-8531.971,-980.0486,485.6543
0.01657902,-10600.35,-1371.795,637.6222,-8530.329,-1012.964,442.5693
0.01658064,-10632.48,-1354.828,567.765,-8550.566,-1022.1,442.6821
0.01657953,-10644.67,-1389.47,573.2707,-8568.746,-1035.756,441.7866
0.01657953,-10629.73,-1394.233,591.3007,-8543.995,-1031.769,485.9035
0.01657869,-10628.55,-1388.826,632.586,-8547.562,-1021.418,497.5182
0.01657932,-10646.82,-1376.382,589.0698,-8570.4,-1026.239,478.1023
0.01658156,-10626.57,-1361.18,619.4612,-8550.452,-1007.93,498.1015
0.01658156,-10596.93,-1371.556,624.5443,-8536.718,-1028.336,518.9069
0.01658007,-10621.99,-1353.895,632.4276,-8547.107,-997.6354,474.5199
0.01657767,-10645.49,-1390.277,628.1782,-8556.213,-1043.194,471.6665
0.01657767,-10646.88,-1401.767,576.004,-8561.662,-1047.411,403.7383
0.0165745,-10682.01,-1411.491,558.4888,-8597.292,-1053.306,432.8888
0.016581,-10652.58,-1395.893,583.1332,-8570.195,-1029.606,495.838
0.016581,-10601.87,-1336.696,645.6266,-8526.993,-976.8836,518.5128
0.01657778,-10597.75,-1365.214,652.7278,-8532.87,-1014.354,498.7333
0.01658065,-10630.09,-1357.375,619.63,-8553.255,-1021.414,497.0717
0.01658065,-10588.1,-1390.502,623.7717,-8516.773,-1031.77,485.1596
0.01657744,-10624.6,-1401.68,664.4094,-8544.813,-1046.6,526.616
0.01657744,-10644.98,-1392.967,624.9807,-8560.384,-1030.135,455.5504
0.016578,-10606.98,-1337.1,613.7851,-8535.746,-971.3757,464.4664
0.01658137,-10594.85,-1377.625,574.1011,-8526.563,-1026.331,480.7186
0.01658076,-10616.74,-1364.284,613.1982,-8530.098,-1018.889,486.2523
0.01657964,-10633.9,-1366.363,619.6085,-8552.107,-1029.359,478.6426
0.01657964,-10638.52,-1392.094,680.2161,-8555.595,-1034.035,512.6875
0.01658032,-10635.6,-1422.183,636.2451,-8553.307,-1066.899,500.7692
0.01658664,-10636.02,-1436.055,615.9477,-8544.729,-1089.193,518.1447
0.01658664,-10589.56,-1437.34,621.4182,-8526.973,-1073.02,513.9373
0.01657912,-10621.51,-1434.716,651.3579,-8542.627,-1070.541,528.9673
0.01658075,-10620.21,-1428.211,653.8361,-8537.213,-1058.762,505.498
0.01658075,-10605.01,-1448.988,707.7736,-8530.064,-1074.792,548.7913
0.01658106,-10601.83,-1422.302,679.6813,-8536.563,-1089.418,580.7813
0.01658106,-10596.89,-1462.163,682.836,-8519.554,-1082.323,525.585
0.01658385,-10570.67,-1416.651,606.0944,-8512.932,-1020.808,452.7536
0.01658206,-10586.82,-1382.914,574.9233,-8520.979,-985.1523,433.3257
0.01657978,-10642.92,-1351.405,561.4709,-8559.46,-971.283,429.1713
0.01657958,-10671.14,-1325.579,638.3734,-8580.875,-951.0251,489.284
0.01658199,-10628.59,-1329.277,688.8041,-8557.035,-999.9001,585.0807
0.0165784,-10584.8,-1375.774,684.2427,-8510.261,-1048.885,591.2233
0.01658129,-10546.93,-1436.514,697.4777,-8494.795,-1076.94,526.5135
0.01658042,-10623.97,-1400.158,642.2196,-8549.422,-1053.124,487.7728
0.01657869,-10641.36,-1399.578,649.1771,-8562.63,-1062.587,503.3907
0.01657869,-10633.62,-1417.82,620.1508,-8561.027,-1076.157,486.5001
0.01658,-10623.43,-1471.268,587.3859,-8539.868,-1102.693,398.4477
0.01657844,-10589.5,-1435.883,598.9983,-8522.813,-1068.462,430.1032
0.01657844,-10634.15,-1402.907,631.2287,-8556.996,-1055.088,495.0873
0.01657775,-10653.59,-1368.294,571.2988,-8571.753,-993.4938,462.898
0.01657775,-10609.34,-1390.04,677.5701,-8533.399,-998.9489,496.5678
0.01657848,-10647.6,-1358.905,668.8666,-8558.221,-1027.38,538.8103
0.01657848,-10608.9,-1351.996,664.4462,-8537.448,-968.2191,475.6954
0.01657977,-10618.52,-1341.307,670.3765,-8540.407,-1012.379,546.3895
0.01657405,-10632.99,-1390.787,665.5891,-8551.461,-1059.437,542.8196
0.01657405,-10630.33,-1389.071,688.1727,-8540.524,-1055.834,523.9009
0.01658024,-10609.76,-1335.292,745.5433,-8533.677,-1011.126,528.5007
0.01657785,-10667.71,-1399.827,651.3045,-8582.397,-1076.058,540.5008
0.01658085,-10650.54,-1433.891,627.1973,-8569.102,-1081.983,492.6844
0.01658132,-10661.3,-1448.178,667.136,-8577.215,-1061.662,491.1507
0.01658036,-10640.79,-1412.498,688.1324,-8561.427,-1066.937,584.738
0.01658036,-10671.86,-1384.318,667.5877,-8580.68,-1019.306,528.1019
0.01657947,-10624.42,-1365.665,662.947,-8539.89,-1007.372,531.9919
0.01657733,-10608.76,-1381.053,666.9918,-8532.437,-1021.478,539.7484
0.01657844,-10638.62,-1364.228,638.5244,-8555.335,-1018.947,527.9279
0.0165755,-10628.44,-1370.15,689.3294,-8556.407,-1016.089,535.7223
0.0165755,-10641.45,-1333.707,722.8908,-8553.047,-976.1685,554.3205
0.01658037,-10647.72,-1359.892,714.765,-8562.247,-1004.705,574.2297
0.01658133,-10620.37,-1368.549,678.8338,-8536.89,-1028.856,592.5722
0.01658133,-10601.03,-1360.467,688.2913,-8526.628,-1011.343,571.3948
0.01657985,-10615.46,-1337.158,683.0438,-8537.772,-992.2338,558.146
0.01658071,-10621.84,-1313.825,718.2643,-8538.268,-999.5007,594.9489
0.01658071,-10621.15,-1319.568,759.5225,-8551.071,-1028.425,623.7462
0.01657868,-10661.98,-1387.213,795.6208,-8577.811,-1094.534,681.4321
0.01657928,-10662.36,-1386.634,777.2208,-8573.531,-1091.651,642.5121
0.01657913,-10600.25,-1463.983,802.4689,-8521.569,-1224.168,627.3971
0.01657913,-10624.86,-1545.946,813.8342,-8544.935,-1330.965,714.1428
0.0165771,-10656.07,-1573.509,788.8934,-8568.78,-1264.617,640.8839
0.01657993,-10666.47,-1549.574,699.3303,-8581.051,-1178.819,592.791
0.01657993,-10653.57,-1472.32,742.3733,-8571.062,-1143.767,636.5474
0.01657938,-10636.98,-1429.799,752.5071,-8558.326,-1098.684,605.963
0.01657933,-10611.72,-1376.495,747.8765,-8525.748,-1055.827,634.7893
0.01657777,-10589.12,-1408.197,724.4305,-8513.057,-1102.708,623.1697
0.01657871,-10527.53,-1546.066,847.355,-8466.235,-1325.148,623.1069
0.01657871,-10531.99,-1631.404,696.3633,-8470.04,-1298.148,599.8104
0.01658009,-10580.69,-1565.587,638.7866,-8503.121,-1309.991,631.8801
0.01658462,-10592.86,-1601.728,728.8828,-8516.97,-1336.991,651.802
0.01657702,-10590.23,-1566.312,735.1855,-8515.019,-1317.051,656.2521
0.01658025,-10608.74,-1559.409,674.2363,-8533.64,-1294.419,611.2917
0.01657957,-10638.48,-1547.244,675.4109,-8551.882,-1265.116,575.4962
0.01657957,-10664.49,-1540.08,653.7583,-8584.907,-1259.978,548.926
0.01657783,-10665.15,-1529.316,606.0234,-8576.304,-1313.626,612.7565
0.01657895,-10662.79,-1614.44,596.4119,-8574.298,-1355.088,666.287
0.01658052,-10678.8,-1591.377,603.1553,-8590.782,-1332.555,778.4294
0.01658519,-10732.17,-1556.035,737.5709,-8626.874,-1321.573,988.8587
0.01657702,-10747.21,-1608.335,804.665,-8629.098,-1330.546,1112.267
0.01658013,-10624.43,-1610.44,830.2693,-8548.286,-1286.97,955.8154
0.01658013,-10562.66,-1550.288,685.2463,-8496.8,-1274.378,695.8615
0.0165797,-10594.49,-1550.603,510.7512,-8521.429,-1204.537,435.9909
0.01657941,-10666.7,-1448.536,328.4469,-8567.867,-1173.3,292.1215
0.0165801,-10656.73,-1460.508,272.1459,-8569.018,-1191.439,236.7137
0.01658391,-10668.62,-1497.984,168.4316,-8573.585,-1234.474,175.6393
0.01658391,-10656.5,-1518.85,133.6702,-8568.668,-1224.465,113.0825
0.0165819,-10654.89,-1484.666,148.7393,-8562.96,-1203.697,131.7728
0.0165819,-10634.98,-1441.255,94.99886,-8552.161,-1154.949,114.551
0.01657499,-10620.11,-1466.345,66.90831,-8536.417,-1198.831,53.46095
0.01658003,-10652.47,-1451.379,19.65209,-8565.654,-1143.539,30.93734
0.01658003,-10642.69,-1445.923,31.80833,-8549.279,-1163.498,57.61491
0.01657812,-10624.63,-1438.195,42.58897,-8539.947,-1187.471,113.17
0.01657812,-10619.78,-1474.462,90.67906,-8540.752,-1220.315,151.7672
0.01658259,-10621.59,-1479.676,86.69048,-8542.206,-1207.684,120.1209
0.0165792,-10663.75,-1436.795,120.8622,-8574.454,-1140.633,33.68454
0.01657957,-10642.91,-1412.318,123.0939,-8567.301,-1173.724,130.8983
0.01657957,-10699.43,-1440.094,41.84218,-8592.685,-1150.271,64.65312
0.01657718,-10685.42,-1448.916,121.5286,-8590.639,-1108.443,114.046
0.01658184,-10703.63,-1392.768,113.2351,-8595.527,-1106.533,193.9617
0.01657853,-10670.62,-1418.248,148.0372,-8574.576,-1129.086,190.2494
0.01658104,-10670.04,-1413.566,170.7819,-8578.515,-1118.506,164.2312
0.01649412,-10712.88,-1409.006,169.7993,-8606.737,-1105.262,195.9853
0.01658111,-10704.37,-1389.132,126.5591,-8595.61,-1105.547,184.3251
0.01658011,-10659.15,-1400.684,209.7231,-8560.959,-1148.117,322.1652
0.01657723,-10676.99,-1412.331,189.6993,-8579.059,-1155.994,331.1654
0.01657994,-10621.02,-1396.252,171.8989,-8531.878,-1103.605,260.2238
0.01658085,-10589.54,-1369.631,144.0897,-8512.473,-1016.175,178.5483
0.01658085,-10618.18,-1276.545,91.70914,-8547.921,-941.11,167.2685
0.01658113,-10648.77,-1271.92,67.87467,-8558.091,-938.0438,127.2134
0.01658133,-10672.08,-1262.535,39.84684,-8575.899,-942.6357,121.7313
0.01657885,-10678.99,-1265.593,103.6816,-8581.098,-963.8626,132.6692
0.01657824,-10691.74,-1283.477,61.33535,-8590.729,-1022.042,155.4063
0.01657824,-10670.17,-1317.234,65.70428,-8578.565,-1023.986,132.9466
0.01657959,-10666.34,-1300.065,68.71657,-8566.74,-1017.14,141.8699
0.01657704,-10660.61,-1256.262,8.18496,-8566.786,-986.9503,77.03239
0.01657704,-10638.49,-1287.787,-37.65862,-8545.482,-975.3491,-33.67044
0.01658521,-10674.35,-1271.426,-56.27001,-8586.25,-973.369,-70.39223
0.01658317,-10663.39,-1265.767,-120.1094,-8573.373,-942.18,-141.3198
0.01657892,-10671.24,-1249.984,-117.9711,-8570.484,-966.7378,-65.29727
0.01657892,-10616.93,-1270.179,-67.8662,-8533.438,-972.4507,-72.31013
0.01657924,-10617.56,-1279.179,-50.50035,-8529.656,-1016.061,-55.18383
0.01658138,-10597.11,-1334.776,-127.7898,-8518.645,-1113.383,-71.1172
0.01658138,-10637.65,-1377.964,-85.10649,-8545.37,-1095.926,-60.67869
0.01657899,-10661.48,-1369.803,-85.56087,-8572.472,-1066.118,-70.32662
0.01658365,-10707.64,-1355.633,-73.72127,-8607.633,-1020.763,-62.85554
0.01657711,-10744.28,-1300.918,-35.56702,-8626.497,-983.939,17.24066
0.01658022,-10735.1,-1270.676,-4.150286,-8619.16,-976.2462,104.9188
0.01657958,-10687.11,-1263.914,48.30267,-8586.697,-936.4128,73.79291
0.01657958,-10654.44,-1275.832,15.31354,-8561.697,-940.5503,29.77854
0.01658068,-10673.04,-1250.446,54.64373,-8571.536,-937.749,118.712
0.01658068,-10646.23,-1245.264,62.5444,-8555.51,-905.8145,127.4362
0.01658031,-10654,-1221.155,114.2728,-8557.105,-882.4726,107.3029
0.01658137,-10702.93,-1205.912,107.3195,-8603.38,-878.9846,129.0361
0.01658032,-10709.4,-1189.253,89.22606,-8603.739,-844.2245,216.4956
0.01658032,-10655.24,-1168.664,131.3046,-8562.247,-896.2684,218.4928
0.01658106,-10621.33,-1224.381,115.6566,-8536.443,-931.1042,117.6718
0.01658106,-10641.66,-1237.872,24.93969,-8547.729,-951.7543,50.152
0.01657906,-10652.64,-1248.164,43.19505,-8560.643,-940.7967,95.8133
0.01657906,-10640.41,-1244.226,119.1427,-8551.358,-943.9028,134.1185
0.01658135,-10653.34,-1235.546,102.788,-8561.308,-940.6194,158.2191
0.01658135,-10666.52,-1229.753,82.21188,-8571.399,-929.3164,155.5643
0.0165793,-10672.01,-1247.766,93.29633,-8571.128,-904.0911,83.26581
0.0165817,-10670.65,-1219.679,35.71166,-8570.061,-919.0184,78.0736
0.01657587,-10676.46,-1255.589,23.00576,-8570.032,-943.7621,61.02207
0.01658067,-10685.26,-1260.091,21.21441,-8590.012,-962.3907,90.84973
0.01658218,-10700.46,-1257.646,38.6141,-8592.654,-981.7621,86.22368
0.01658218,-10723.4,-1314.452,-4.748092,-8614.476,-1038.578,126.2972
0.01657611,-10713.3,-1329.889,35.9627,-8602.129,-1058.596,253.528
0.01657611,-10631.7,-1292.735,114.2069,-8544.135,-1012.674,218.7658
0.01657891,-10599.67,-1300.601,46.20182,-8515.438,-982.2305,104.9962
0.01657894,-10631.18,-1292.697,30.0555,-8539.789,-948.1282,65.31644
0.01657894,-10685.43,-1274.347,12.04899,-8585.768,-921.9419,140.9297
0.01657999,-10665.15,-1205.663,-21.97174,-8570.193,-842.4759,136.038
0.01658023,-10642.14,-1167.412,14.27876,-8552.627,-832.5276,117.2895
0.01657651,-10646.5,-1162.513,-0.01104814,-8542.749,-823.4461,87.33434
0.0165797,-10662.3,-1150.501,-8.384263,-8563.756,-857.9351,127.3466
0.0165797,-10660.65,-1197.223,-8.697474,-8562.5,-921.0929,92.82989
0.01657976,-10674.1,-1234.583,-33.87559,-8572.768,-967.6861,64.32999
0.01657944,-10686.34,-1278.997,-56.55359,-8577.635,-995.1005,15.68497
0.01657944,-10686.66,-1283.095,-77.90042,-8582.23,-994.9215,-30.42782
0.01657959,-10672.37,-1239.498,-192.4646,-8566.808,-922.6297,-106.0439
0.01657959,-10666.09,-1146.522,-225.1038,-8562.008,-811.5406,-184.1251
0.01657805,-10695.67,-1136.194,-253.9289,-8593.464,-816.8791,-173.5635
0.01657889,-10656.48,-1139.64,-226.0329,-8559.005,-824.6564,-136.1156
0.01657897,-10645.67,-1142.66,-175.5919,-8555.233,-820.1283,-158.6941
0.01658061,-10649.51,-1165.023,-202.2687,-8549.387,-880.1801,-193.7401
0.01658061,-10685,-1160.165,-282.724,-8585.412,-879.0778,-232.9262
0.01657953,-10729.1,-1184.921,-243.181,-8618.994,-885.9022,-193.6181
0.01657959,-10747.91,-1195.721,-228.0042,-8628.67,-911.9047,-137.1657
0.01657958,-10749.48,-1221.116,-161.1587,-8629.589,-967.7955,-2.165516
0.01657958,-10713.36,-1239.301,-167.6153,-8601.757,-951.2643,-65.12125
0.01657908,-10655.39,-1241.939,-114.9823,-8566.284,-936.4586,-51.50662
0.01657977,-10658.27,-1227.118,-132.3785,-8555.311,-931.0856,-17.82252
0.01657922,-10651.11,-1224.013,-96.76961,-8563.267,-887.0809,-51.43847
0.01657922,-10639.6,-1205.853,-98.27403,-8554.588,-848.5926,-143.5558
0.01657894,-10759.39,-1228.603,-137.6889,-8637.312,-924.2633,-134.774
0.01657894,-10690.57,-1191.178,-258.2053,-8584.469,-761.2866,-72.35634
0.01657848,-10702.17,-1084.5,-127.0648,-8593.303,-771.6169,-41.79834
0.01658052,-10697.79,-1146.145,-69.45768,-8585.476,-878.7453,30.57476
0.01658052,-10661.86,-1178.429,-139.6437,-8558.027,-907.92,-13.14877
0.01657873,-10643.18,-1222.877,-66.88621,-8548.317,-929.6189,8.493725
0.01657873,-10658.08,-1244.838,9.191523,-8568.716,-936.5071,59.34384
0.01657549,-10701.47,-1227.719,-34.42302,-8597.474,-924.8771,12.49453
0.01656837,-10697.91,-1217.561,-75.02805,-8590.231,-900.9222,31.34337
0.01656837,-10700.06,-1231.295,-63.03374,-8591.81,-911.0814,76.29241
0.01658035,-10657.99,-1224.572,-38.91882,-8555.21,-865.9749,51.73568
0.01658035,-10645.6,-1191.176,-70.19958,-8554.73,-852.6998,2.934108
0.01658049,-10648.7,-1171.177,-54.46627,-8552.793,-845.3176,-2.851317
0.01658049,-10656.2,-1165.708,-68.95413,-8563.063,-856.826,29.21139
0.01657807,-10647.51,-1189.07,-65.57405,-8547.634,-876.1841,-30.36075
0.01658026,-10661.29,-1185.094,-107.8395,-8558.263,-870.4122,-98.87967
0.01658026,-10628.49,-1192.914,-178.8568,-8542.131,-904.6803,-85.52495
0.01657974,-10651.74,-1254.551,-188.1944,-8551.162,-922.0469,-145.1939
0.0165806,-10664.26,-1252.114,-165.8074,-8565.208,-959.0239,-26.82385
0.0165806,-10653.96,-1241.371,-120.4783,-8548.481,-945.8474,-43.90578
0.01658077,-10660.04,-1244.378,-103.6068,-8562.043,-930.2318,-62.00797
0.01658077,-10663.79,-1232.275,-99.70161,-8560.475,-934.4269,-24.92325
0.01658234,-10628.25,-1197.71,-142.2658,-8546.641,-897.9655,-50.2695
0.01658384,-10644.35,-1185.364,-141.6308,-8541.318,-865.0614,-104.5249
0.01658384,-10659.19,-1168.087,-175.2009,-8552.716,-847.5957,-112.2185
0.01657934,-10685.65,-1187.065,-127.6289,-8572.922,-833.7689,-59.01653
0.0165817,-10665.57,-1183.316,-111.2401,-8570.797,-836.9037,-57.28504
0.0165817,-10693.82,-1193.643,-137.6289,-8592.32,-852.1486,-99.87961
0.01657977,-10728.98,-1195.439,-130.2194,-8623.453,-858.87,-97.13518
0.01657977,-10727.06,-1216.158,-135.7682,-8603.987,-914.9032,-73.85397
0.01610213,-10656.56,-1276.664,-101.2746,-8549.981,-980.9131,-69.90993
0.01657982,-10624.17,-1286.924,-155.9025,-8534.223,-1015.506,-91.15372
0.01658113,-10633.36,-1320.703,-224.1001,-8550.288,-1017.865,-178.2551
0.01657159,-10661.29,-1281.026,-135.2197,-8558.432,-963.8473,-100.5406
0.01657159,-10680.85,-1307.016,-85.6395,-8568.954,-980.1515,-75.66946
0.01656917,-10682.21,-1310.341,-86.6667,-8578.816,-973.2696,-44.72726
0.01656998,-10650.92,-1305.923,-56.51502,-8554.871,-953.039,-49.86098
0.01657135,-10647.06,-1285.832,-47.37482,-8543.123,-939.4805,-23.98463
0.01657135,-10668.07,-1293.1,-25.62626,-8563.685,-938.5887,-14.84909
0.01657181,-10667.19,-1245.809,-11.19714,-8567.434,-919.0313,44.05178
0.01657451,-10639.03,-1219.837,0.2107027,-8537.06,-899.2822,31.2787
0.01657451,-10680.14,-1253.636,34.33887,-8581.854,-926.9105,45.59314
0.01666803,-10681.12,-1260.405,-6.130278,-8569.219,-949.2646,84.0496
0.01666803,-10694.65,-1245.342,30.6501,-8575.07,-919.9909,89.84885
0.01656996,-10613.74,-1208.581,63.42253,-8530.948,-903.0612,117.4664
0.01656996,-10637.77,-1256.72,4.24811,-8545.051,-938.3073,31.05759
0.01657262,-10656.42,-1285.885,-1.146012,-8559.376,-967.1804,14.32572
0.01657241,-10676.26,-1307.825,-12.94106,-8570.098,-992.9085,37.08549
0.01657241,-10622.37,-1278.521,23.20966,-8533.336,-965.3096,39.09757
0.01657214,-10658.63,-1259.504,51.15453,-8570.02,-955.4063,4.034418
0.01657214,-10725.46,-1261.868,-64.4603,-8612.14,-970.205,-80.47414
0.01657328,-10735.27,-1329.635,-91.16989,-8619.37,-984.2101,-91.96231
0.01657328,-10711.72,-1352.305,-18.71252,-8601.119,-1029.26,22.14524
0.01657058,-10709.77,-1342.115,2.099643,-8590.618,-1008.667,77.27261
0.01657216,-10659.52,-1280.667,46.26714,-8561.016,-943.5158,18.2403
0.01657216,-10671.28,-1240.812,-4.662398,-8565.637,-925.8909,-41.86272
0.01657301,-10699.22,-1235.257,-71.64349,-8591.433,-950.9055,-25.88557
0.01657137,-10700.05,-1253.421,-23.76948,-8591.978,-956.297,41.57924
0.01657137,-10662.72,-1225.475,25.57476,-8563.399,-903.1649,53.67294
0.01657287,-10654.2,-1238.202,25.74591,-8552.541,-882.0834,-29.49574
0.01657277,-10679.24,-1194.597,8.587051,-8576.186,-842.3698,-20.71881
0.01657277,-10656.34,-1215.546,-35.6382,-8554.266,-916.3428,-41.44751
0.01657148,-10626.35,-1257.917,-103.4166,-8527.034,-917.5158,-157.2855
0.01657148,-10596.85,-1247.758,-129.5059,-8509.15,-890.9475,-290.7656
0.0165751,-10677.62,-1282.909,-111.1841,-8571.086,-946.4034,-246.0346
0.01657046,-10664.06,-1304.205,-127.2519,-8560.674,-1053.111,-49.70374
0.0165743,-10641.68,-1376.642,-33.27909,-8539.165,-1052.353,-22.42823
0.01657276,-10616.46,-1344.521,63.89458,-8524.435,-1004.63,67.66827
0.0165705,-10627.51,-1308.806,122.3454,-8528.618,-988.181,115.3514
0.0165705,-10610.91,-1314.913,183.5872,-8520.492,-953.9453,158.3452
0.0165737,-10635.87,-1277.571,258.8047,-8544.143,-921.5175,221.8276
0.01657402,-10667.32,-1232.917,232.0617,-8559.318,-885.0502,248.8151
0.01657402,-10636.77,-1223.01,226.2362,-8549.229,-897.1491,231.7825
0.01658131,-10631.29,-1264.653,226.7485,-8540.641,-915.0505,215.3103
0.01657417,-10652.47,-1303.93,244.4369,-8552.431,-947.3309,249.4598
0.01657073,-10645.96,-1218.889,219.9731,-8547.444,-895.9079,258.8708
0.01657073,-10626.64,-1241.789,242.0426,-8528.27,-896.4409,225.8098
0.01657237,-10636.42,-1243.463,221.7202,-8535.827,-922.7948,244.9537
0.01656995,-10662.19,-1244.885,204.8725,-8564.403,-934.1983,213.6315
0.01656995,-10677.34,-1262.516,217.1243,-8571.452,-942.4291,214.6474
0.01657302,-10631.65,-1224.48,225.3394,-8545.318,-915.0322,228.3729
0.01657253,-10637.17,-1221.354,186.7714,-8545.148,-917.1974,201.3873
0.01657253,-10665.88,-1217.588,193.6564,-8558.229,-894.7678,196.2564
0.01657137,-10652.56,-1205.009,159.6824,-8548.004,-874.2435,180.7203
0.01657137,-10629.22,-1197.272,194.3074,-8530.181,-869.9333,234.8389
0.01657232,-10603.48,-1208.6,185.6821,-8515.049,-873.8094,195.6511
0.01657337,-10605.36,-1194.011,194.3724,-8521.08,-872.8019,202.4889
0.01657388,-10646.67,-1210.041,167.3773,-8543.883,-898.5062,162.9518
0.01657151,-10674.08,-1198.772,181.4775,-8573.641,-901.3231,175.4344
0.01657151,-10672.34,-1232.026,227.5865,-8567.735,-948.9374,263.245
0.01657255,-10684.31,-1256.181,202.557,-8585.627,-942.339,195.0958
0.01657255,-10680.11,-1264.28,150.3101,-8577.822,-943.6772,150.9987
0.01657275,-10687.3,-1265.155,155.4819,-8574.325,-953.6213,180.8575
0.01657275,-10692.26,-1277.042,181.7315,-8586.854,-950.0825,169.3817
0.01657383,-10670.68,-1246.478,195.1255,-8570.242,-933.2483,195.4154
0.01657375,-10653.48,-1235.77,166.2463,-8557.072,-906.2102,171.6438
0.01657375,-10673.34,-1232.85,161.3972,-8563.393,-896.5587,140.58
0.01657645,-10631.62,-1226.649,184.2771,-8544.807,-905.1959,208.5795
0.01657294,-10627.46,-1233.329,147.6292,-8528.443,-921.4348,189.6596
0.01657294,-10596.24,-1203.671,143.1591,-8504.75,-877.4764,120.6539
0.01657354,-10627.1,-1203.422,107.1544,-8532.976,-909.3016,130.4857
0.01657354,-10631.08,-1223.441,140.4116,-8536.098,-928.2598,159.1538
0.01657544,-10642.4,-1243.479,118.1302,-8549.229,-930.2453,116.4649
0.01657365,-10676.82,-1260.444,116.6846,-8575.509,-950.334,147.421
0.01657196,-10642.53,-1287.868,97.3113,-8544.766,-956.1763,131.6462
0.01657455,-10636.74,-1269.981,156.3274,-8535.941,-947.0392,191.5571
0.01657455,-10643.33,-1251.787,186.5911,-8541.028,-928.8842,200.4385
0.01657707,-10655,-1251.157,199.8596,-8554.395,-940.0134,250.002
0.01657707,-10668.53,-1267.388,249.6892,-8560.249,-958.4529,239.2816
0.01657487,-10656.32,-1272.524,231.1505,-8546.426,-998.263,259.6867
0.01657348,-10659.02,-1313.871,248.6624,-8548.479,-1035.161,283.2685
0.01657313,-10628.44,-1347.292,194.3239,-8538.42,-1027.641,232.5623
0.01657377,-10633,-1326.745,160.9341,-8533.11,-1024.054,244.3661
0.01657377,-10588.02,-1364.695,168.8192,-8512.133,-1025.883,239.2641
0.01657111,-10656.37,-1314.788,192.5618,-8546.778,-1031.493,372.2788
0.01657111,-10637.43,-1339.919,281.8145,-8536.712,-1025.827,357.7654
0.01657433,-10610.91,-1297.682,262.4156,-8516.498,-957.6403,294.5433
0.01657433,-10615.51,-1274.324,183.8157,-8524.559,-929.3331,228.7427
0.01657354,-10647.25,-1262.783,130.1918,-8544.437,-923.1708,188.7195
0.01660981,-10643.59,-1274.868,85.43378,-8550.472,-933.9562,142.6419
0.01657168,-10644.85,-1281.025,29.57174,-8546.959,-945.4095,102.9355
0.01657168,-10618.86,-1275.453,13.09894,-8522.662,-904.9327,37.23401
0.01660394,-10597.02,-1237.975,-26.47744,-8506.072,-864.2928,-2.781279
0.01657457,-10595.56,-1204.967,-58.47045,-8500.686,-827.2184,-11.43271
0.01657457,-10659.18,-1171.493,-83.06644,-8558.262,-809.0175,33.47377
0.01657411,-10623.37,-1172.479,-54.61224,-8526.371,-825.2184,78.85683
0.01657411,-10628.9,-1180.878,12.73088,-8530.628,-875.234,194.9551
0.01655782,-10614.44,-1223.846,10.77645,-8519.604,-848.9927,161.0502
0.01658569,-10624.9,-1205.042,30.31142,-8536.516,-824.0084,102.641
0.01657369,-10633.42,-1206.115,-37.51366,-8543.013,-812.6124,89.79539
0.01657369,-10689.32,-1192.109,42.71029,-8576.783,-832.3534,190.6684
0.01657208,-10678.38,-1165.343,113.174,-8568.208,-821.8193,278.6763
0.01657079,-10674.97,-1139.829,211.099,-8574.309,-806.2061,238.8665
0.01657638,-10659.54,-1090.55,213.2972,-8553.524,-799.3775,236.1441
0.01656889,-10700.07,-1137.82,78.89151,-8588.839,-825.3422,74.09399
0.01656889,-10695.87,-1181.181,-88.14659,-8589.85,-850.0603,-25.20386
0.01657394,-10682.05,-1204.576,-140.0835,-8570.256,-864.907,-60.74004
0.01657218,-10641.47,-1207.028,-148.6264,-8534.762,-879.1894,-87.97369
0.01657218,-10663.13,-1193.504,-145.2913,-8560.241,-889.0009,-63.50718
0.01657544,-10661.56,-1235.287,-150.1709,-8554.588,-901.9946,-92.82625
0.01657544,-10656.12,-1205.167,-158.57,-8550.425,-939.478,-22.08429
0.01657282,-10673.99,-1210.415,-149.2976,-8564.083,-968.5073,56.66631
0.01657534,-10687.71,-1275.597,-52.18024,-8574.502,-979.2535,161.5089
0.01657126,-10651.27,-1267.922,12.35369,-8546.582,-988.2548,266.215
0.0165734,-10670.93,-1229.038,101.8945,-8566.07,-975.4093,263.9257
0.0165734,-10660.33,-1245.59,57.31246,-8553.505,-968.7458,109.0066
0.01657373,-10676.2,-1239.181,27.1308,-8574.496,-962.8346,63.08341
0.01657348,-10657.86,-1236.721,-137.6341,-8547.132,-955.8309,-93.69261
0.01657348,-10659.11,-1267.805,-213.7201,-8552.553,-969.2061,-173.7702
0.01657241,-10641.12,-1240.181,-272.8957,-8543.275,-1011.906,-124.9102
0.01657241,-10646.28,-1287.06,-265.5657,-8538.431,-989.0471,-187.6685
0.01656744,-10651.51,-1260.448,-231.7818,-8542.487,-966.287,-173.4294
0.01657399,-10607.02,-1210.79,-250.0363,-8526.295,-872.3381,-193.2988
0.01657399,-10664.59,-1095.89,-251.1965,-8565.976,-784.5833,-214.5151
0.01657595,-10700.45,-1067.043,-324.317,-8597.714,-750.7438,-380.143
0.01657562,-10707.92,-1045.208,-405.6163,-8589.92,-751.4042,-558.2093
0.01657562,-10756.04,-1074.127,-449.4375,-8626.476,-773.3261,-498.6753
0.01657444,-10789.21,-1091.436,-440.0599,-8651.448,-735.5198,-414.5327
0.01657739,-10787.93,-999.8607,-406.6795,-8650.041,-693.8027,-347.0449
0.01657621,-10773.16,-1001.918,-349.846,-8633.952,-690.835,-282.4817
0.016573,-10706.27,-1022.488,-204.7714,-8591.486,-731.8322,-129.2995
0.01657498,-10709.2,-1072.072,-172.0353,-8584.854,-773.723,-183.8609
0.01657498,-10706.34,-1075.551,-188.5993,-8587.107,-772.9734,-177.3693
0.01657433,-10722.47,-1113.929,-168.3351,-8608.288,-754.2462,-168.7517
0.0165732,-10696.51,-1064.257,-102.1733,-8575.101,-780.1403,-70.85719
0.0165752,-10663.41,-1110.826,-49.9832,-8558.756,-811.1248,-33.53522
0.01657246,-10636.66,-1111.246,50.95854,-8529.638,-847.9653,8.741738
0.01657262,-10646.77,-1119.39,-7.398678,-8542.053,-822.4916,-102.1048
0.01657333,-10629.89,-1057.719,-96.09099,-8529.353,-744.3339,-175.8111
0.01657333,-10690.2,-1029.156,-150.3786,-8575.621,-679.0203,-181.5862
0.01657299,-10701.23,-1003.97,-122.5981,-8584.015,-662.9938,-97.44094
0.01657299,-10748.58,-996.6292,-42.85355,-8611.228,-640.6902,10.32792
0.01657299,-10697.18,-990.036,99.98576,-8585.066,-646.9443,84.72075
0.01657541,-10688.19,-1004.146,66.17635,-8573.75,-693.3204,90.88906
0.01657287,-10620.84,-1065.402,71.14155,-8517.923,-737.0077,29.88586
0.01657287,-10622.7,-1008.01,88.04624,-8519.634,-695.1351,-1.017471
0.0165742,-10657.51,-1022.702,63.85014,-8546.447,-716.8098,52.57059
0.0165742,-10590.62,-1015.043,103.2257,-8495.473,-721.598,81.83157
0.01657486,-10619.51,-1015.496,87.31811,-8522.294,-724.2628,87.07969
0.01657337,-10614.76,-1026.49,104.0764,-8514.407,-722.7697,67.22219
0.01657337,-10652.12,-1019.867,161.5024,-8547.541,-718.6017,85.95065
0.01657586,-10663.1,-1020.077,124.2785,-8542.64,-729.0829,74.69028
0.01657586,-10685.93,-1066.92,74.23824,-8573.357,-745.494,-7.947204
0.0165727,-10704.89,-1036.177,102.8366,-8583.282,-716.3892,33.47583
0.01693759,-10676.86,-1008.397,132.1096,-8566.148,-713.2285,53.66573
0.01693759,-10668.12,-992.7927,82.99847,-8559.421,-705.0215,23.90983
0.01657493,-10693.97,-1012.141,104.4243,-8574.71,-691.1311,-11.06816
0.01657493,-10666.8,-955.1023,151.8085,-8558.298,-701.7166,141.3675
0.01657636,-10683.04,-977.8237,239.2063,-8575.13,-709.5696,197.3432
0.01657408,-10678.13,-949.6166,243.6097,-8562.451,-675.4138,172.8158
0.01657408,-10642.92,-950.3039,226.3875,-8539.983,-661.222,155.1717
0.0165775,-10662.38,-949.6653,230.0968,-8554.946,-650.1769,151.7096
0.01657775,-10669.43,-919.3095,223.6715,-8555.913,-605.0928,163.5502
0.01657775,-10698.97,-874.1155,234.5376,-8587.326,-536.0817,190.2846
0.0165755,-10725.1,-869.5359,303.2927,-8598.273,-614.6011,324.8651
0.0165755,-10665.69,-927.8245,373.3312,-8552.73,-620.1277,312.9636
0.01657744,-10660.79,-923.3908,402.0753,-8549.035,-623.0223,278.9261
0.0165752,-10710.09,-911.3843,351.9485,-8595.598,-663.6006,302.2214
0.01657096,-10712.35,-941.4371,324.8167,-8592.738,-700.7498,309.4169
0.0165783,-10667.92,-979.7768,333.1078,-8563.123,-732.9905,364.2545
0.01657777,-10657.47,-1004.233,425.4237,-8541.896,-738.148,396.7358
0.01657644,-10638.01,-937.0109,474.9263,-8540.439,-697.1028,434.5524
0.01657644,-10658.09,-911.1274,408.7619,-8538.182,-647.717,257.1313
0.01657875,-10642.05,-871.2776,342.4197,-8534.889,-630.7628,171.3275
0.0165757,-10654.06,-932.8094,267.9576,-8548.604,-773.5539,296.8174
0.01657672,-10616.98,-1002.045,331.8763,-8520.349,-855.5535,330.059
0.01657888,-10617.7,-1059.856,333.8056,-8516.652,-851.2549,235.7381
0.01657362,-10660.47,-1060.39,278.1897,-8549.474,-820.0731,202.1365
0.01657843,-10684.48,-1037.156,252.655,-8585.519,-824.33,255.3898
0.01657422,-10721.9,-1011.238,291.319,-8591.786,-770.4052,287.2164
0.01657422,-10774.11,-1005.251,347.745,-8635.846,-790.6212,405.8293
0.01657512,-10780.83,-1092.571,528.9359,-8640.571,-950.7276,787.9628
0.01657512,-10812.84,-1110.306,781.0269,-8660.191,-907.9138,1061.283
0.01657487,-10673.4,-1012.687,758.2308,-8562.157,-813.1844,910.2777
0.01657803,-10623.93,-904.6268,708.1307,-8528.937,-556.4249,550.2188
0.01657649,-10587.7,-785.2496,430.4653,-8501.563,-460.5031,238.5855
0.01658117,-10661.32,-731.83,261.1274,-8553.707,-412.8233,89.67016
0.01657508,-10756.71,-685.5421,183.8169,-8631.021,-378.1629,109.1201
0.01657508,-10749.11,-678.0715,119.0937,-8620.476,-421.6422,178.3271
0.01657472,-10689.82,-702.505,216.3885,-8579.413,-445.4969,237.0148
0.01657411,-10710.45,-762.6392,278.5648,-8590.732,-529.8949,252.1057
0.01657411,-10712.4,-781.1839,284.9604,-8587.727,-606.7888,272.8552
0.01657775,-10688.99,-845.7767,256.8109,-8578.664,-641.305,262.9827
0.01657775,-10686.5,-874.3516,292.7876,-8572.356,-658.343,210.7187
0.01657773,-10775.88,-861.7514,289.666,-8636.183,-674.6011,278.7249
0.01656884,-10734.7,-852.9929,280.9568,-8604.452,-690.7524,293.5419
0.0165763,-10700.32,-855.2293,250.3217,-8573.67,-659.0739,247.2804
0.0165763,-10673.47,-904.0156,234.0144,-8553.224,-688.49,230.668
0.01657996,-10667.94,-842.1019,234.9158,-8549.143,-643.4919,254.3755
0.01657696,-10669.4,-838.6936,261.0571,-8559.271,-620.6993,271.2272
0.01657651,-10672.84,-847.9155,220.8955,-8562.001,-613.9729,222.3961
0.01657651,-10661.72,-811.8191,222.5831,-8549.166,-566.2709,218.9862
0.01657759,-10690.8,-766.6905,252.374,-8571.487,-525.6981,250.5718
0.01657759,-10711.22,-782.5805,195.7929,-8578.207,-540.1706,221.3279
0.01657651,-10736.24,-755.201,226.8646,-8606.113,-520.6738,246.9801
0.01657651,-10715.33,-763.9224,208.968,-8594.418,-549.2979,229.5619
0.01657596,-10706.3,-811.5759,223.5209,-8583.009,-591.1772,242.516
0.01657426,-10714.15,-834.8029,241.3047,-8584.547,-637.1772,275.5815
0.01657426,-10687.59,-864.3446,196.8109,-8568.659,-658.4858,218.0587
0.01657701,-10666.62,-892.6035,192.8654,-8552.705,-682.5966,176.4801
0.01657701,-10662.29,-909.62,162.4392,-8549.531,-708.2839,173.7582
0.01657531,-10647.81,-935.5357,123.0341,-8543.041,-706.64,114.9248
0.01657587,-10682.9,-903.9554,143.8814,-8565.551,-689.3469,158.4847
0.01657587,-10687.97,-915.9393,154.2981,-8569.44,-711.548,180.3155
0.01657915,-10713.1,-971.4053,200.0332,-8593.053,-744.4575,201.3058
0.01657915,-10706.69,-952.9236,157.4323,-8588.055,-749.8412,207.3222
0.0165769,-10666.23,-951.1113,136.6769,-8552.667,-744.2069,116.2593
0.0165743,-10656.97,-953.1086,133.7863,-8545.696,-741.5375,138.2178
0.0165743,-10699.4,-967.3845,143.1272,-8578.211,-736.9216,87.17751
0.01658061,-10719.81,-953.5939,102.1822,-8593.739,-736.6489,131.5863
0.01658061,-10656.24,-949.8382,155.3185,-8545.091,-722.2161,194.3089
0.01657773,-10594.76,-934.1992,121.3668,-8493.864,-708.192,116.8793
0.01657548,-10648.97,-965.4864,62.33879,-8540.045,-751.6705,85.3608
0.01657676,-10704.39,-985.247,71.87809,-8578.018,-726.9263,88.90234
0.01657676,-10697.9,-967.2114,102.6464,-8581.82,-752.5775,170.3356
0.01657442,-10692.96,-958.9613,173.9217,-8573.528,-709.2604,183.5322
0.01657442,-10683.23,-919.0933,168.3791,-8566.051,-664.3765,144.8292
0.01657766,-10659.77,-890.4134,113.2463,-8543.704,-653.7027,120.7295
0.01657254,-10649.41,-889.1094,96.0654,-8544.745,-675.627,121.8947
0.0165785,-10689.08,-888.3207,98.24768,-8575.133,-663.5336,120.1323
0.01657657,-10667.97,-905.8113,73.79612,-8550.096,-676.7617,68.6635
0.01657739,-10675.44,-919.3383,92.31405,-8560.271,-714.0222,100.2731
0.01657604,-10679.91,-936.7384,112.2562,-8559.255,-737.7789,160.2451
0.01657843,-10655.86,-942.6011,97.21152,-8549.756,-710.2707,107.4618
0.01657616,-10634.26,-946.9434,114.5289,-8533.333,-718.7771,89.50529
0.01657616,-10628.48,-973.301,102.0049,-8520.204,-750.4374,103.8741
0.01657509,-10658.49,-962.9811,72.11686,-8547.71,-762.0157,92.23121
0.01657509,-10670.72,-946.1663,107.6968,-8552.637,-762.008,127.3172
0.01657862,-10677.8,-973.7143,88.03393,-8575.752,-782.3487,120.3395
0.01657486,-10663.29,-990.1609,147.0043,-8551.302,-758.6762,133.2835
0.01657486,-10699.97,-981.8141,74.82867,-8574.888,-753.2322,102.459
0.01657715,-10715.69,-993.0162,131.1264,-8591.2,-735.3416,147.7779
0.01657715,-10711.38,-968.1331,103.6787,-8583.304,-721.2325,136.692
0.01657709,-10684.15,-905.2574,88.53223,-8566.819,-647.7535,89.94704
0.01657098,-10687.01,-935.7143,63.953,-8568.987,-649.416,74.35925
0.01657098,-10745.14,-864.0768,94.32674,-8613.327,-603.7895,151.4735
0.01657678,-10703.5,-834.0237,121.1847,-8576.861,-579.8911,174.1321
0.01657678,-10660.01,-852.8093,179.354,-8543.616,-614.1146,212.0043
0.01657748,-10636.9,-840.5873,163.6692,-8530.526,-618.1292,174.7556
0.01657641,-10692.43,-859.4973,133.8329,-8581.965,-627.61,124.367
0.01657641,-10677.47,-875.8456,110.7615,-8561.61,-656.0891,138.0532
0.01657587,-10682.95,-899.9652,117.9383,-8561.381,-667.6685,149.3671
0.01657587,-10690.53,-881.1417,143.1939,-8567.174,-677.677,209.057
0.01657807,-10701.59,-868.8881,123.3175,-8580.02,-637.05,162.6584
0.01657799,-10672.57,-880.0215,155.3248,-8562.228,-680.8579,202.2833
0.01657799,-10691.11,-912.4573,118.9941,-8580.846,-702.8474,129.7704
0.01657646,-10684.26,-931.3851,89.02354,-8557.845,-685.8819,67.9118
0.01657597,-10692.16,-942.653,35.29084,-8568.321,-718.4704,88.64321
0.01657618,-10662.49,-953.0004,80.2878,-8545.655,-708.7282,128.2777
0.01658063,-10690.66,-920.9872,89.67776,-8571.682,-661.1332,105.0659
0.01658063,-10716.09,-906.7226,84.20506,-8586.629,-653.5895,135.6156
0.01657805,-10704.14,-907.6634,84.37487,-8577.396,-669.3292,169.8498
0.01657681,-10669.32,-941.8943,77.30938,-8546.322,-708.4968,177.7084
0.01657696,-10625.68,-955.1184,139.7824,-8517.536,-718.1731,153.0711
0.01657696,-10623.83,-971.2042,65.40806,-8520.794,-770.4341,106.711
0.01657682,-10645.38,-982.0914,28.97309,-8537.453,-778.7139,53.85792
0.01657682,-10671.54,-990.3121,33.17523,-8553.093,-761.4089,39.6799
0.01657701,-10659.15,-938.0128,28.20287,-8543.634,-725.1047,64.73586
0.01657752,-10669.68,-960.0237,23.27534,-8556.154,-710.8475,70.91241
0.01657752,-10652.67,-953.485,57.03496,-8534.304,-690.0198,92.46525
0.01657834,-10643.78,-978.5428,68.07461,-8540.889,-719.6868,78.25356
0.01657834,-10648.9,-990.0687,77.20985,-8540.441,-742.5037,106.0703
0.01657713,-10695.15,-987.4193,75.22681,-8575.798,-732.5569,57.45763
0.01657174,-10759.75,-967.4865,37.00008,-8620.554,-749.8986,57.17916
0.01657174,-10688.41,-960.7113,-1.807555,-8570.177,-721.9102,55.69743
0.01657858,-10680.8,-984.6816,18.3562,-8568.754,-754.0367,70.771
0.01657858,-10690.77,-961.4979,1.236906,-8571.905,-727.8926,24.04941
0.01657268,-10719.71,-933.7078,43.28469,-8580.658,-687.2771,67.48393
0.01657927,-10708.56,-916.0458,58.86596,-8576.45,-698.8566,122.9046
0.01657692,-10648.75,-944.9929,38.03313,-8539.585,-706.1293,51.21884
0.01657655,-10676.07,-926.2325,60.79707,-8560.571,-684.9258,63.98793
0.01657767,-10632.33,-947.793,27.38395,-8531.642,-713.1386,95.5483
0.0165769,-10662.43,-982.6902,49.3465,-8554.792,-745.3163,79.36736
0.01658026,-10682.42,-971.725,50.25084,-8570.088,-734.8625,64.54871
0.01657733,-10701.84,-1005.729,40.04553,-8576.011,-764.0594,62.88333
0.01657733,-10688.56,-1006.813,57.65975,-8561.347,-766.337,75.82825
0.0165791,-10699.46,-993.9483,49.82703,-8574.084,-771.2764,101.6802
0.01657423,-10668.15,-975.4064,95.03988,-8554.547,-733.4237,94.86833
0.01657423,-10690.91,-967.4529,52.01868,-8571.966,-697.7017,45.00314
0.01657536,-10680.94,-961.2355,42.73018,-8555.446,-707.4389,77.32524
0.01657704,-10671.63,-947.7109,101.8455,-8557.225,-704.3802,119.7027
0.01660479,-10663.06,-955.4373,129.651,-8541.85,-699.5696,158.7293
0.01660479,-10664.67,-918.6013,123.7401,-8552.021,-674.5754,130.352
0.01657435,-10659.21,-925.1577,85.16884,-8547.902,-701.9391,94.60369
0.01657435,-10689.36,-958.4077,48.90415,-8566.545,-732.1332,72.98682
0.01657668,-10669.24,-978.1572,77.87827,-8559.998,-745.2258,84.67933
0.01657279,-10698.58,-1000.251,97.91102,-8573.547,-785.244,130.4371
0.01657279,-10693.36,-1012.919,90.69888,-8569.479,-793.5709,127.0039
0.01657778,-10681.33,-1028.995,79.09647,-8560.243,-778.1687,76.77679
0.01657778,-10646.56,-1004.775,22.959,-8533.703,-738.6831,49.20182
0.01657621,-10709.46,-983.3378,50.82097,-8572.99,-731.3962,55.45671
0.0165754,-10758.27,-988.8426,39.12326,-8619.004,-722.3105,72.12992
0.01657311,-10697.91,-928.726,77.47197,-8577.066,-677.5441,123.1013
0.01657037,-10633.63,-923.5059,89.79762,-8532.384,-694.0173,130.185
0.01657677,-10686.03,-957.3672,71.81002,-8559.289,-709.8055,78.09602
0.01657677,-10684.48,-955.1191,70.73142,-8553.678,-720.8901,102.7829
0.01657788,-10656.94,-938.1631,126.1644,-8541.539,-718.7825,170.8268
0.01657622,-10657.73,-958.7808,177.955,-8533.379,-737.9149,180.9867
0.01657645,-10633.87,-962.3278,126.6038,-8528.569,-729.5212,131.1483
0.01657743,-10628.14,-975.8314,62.82496,-8511.06,-741.758,105.0441
0.01657669,-10659.25,-962.9767,108.2794,-8539.43,-750.7141,142.8641
0.01657718,-10637.81,-971.9968,126.0411,-8527.539,-737.8854,157.1406
0.01657649,-10609.99,-1007.557,115.7445,-8506.412,-761.3935,130.5555
0.016573,-10631.69,-1026.496,114.147,-8523.185,-803.1088,119.019
0.01658034,-10686.74,-991.6765,85.3381,-8569.729,-772.3775,149.6163
0.01658027,-10663.52,-1005.702,100.9723,-8547.444,-724.5432,144.6191
0.01658027,-10603.23,-957.9817,131.4297,-8496.973,-676.748,123.7775
0.0165787,-10643.48,-949.2872,100.9992,-8527.917,-682.2156,111.5606
0.0165787,-10651.71,-956.9881,101.6492,-8534.244,-707.1069,109.8734
0.0165148,-10647.7,-980.5723,41.6767,-8535.623,-743.4767,74.65051
0.01657682,-10638.8,-986.2089,72.56023,-8528.842,-757.9739,89.04205
0.01657804,-10700.12,-1008.291,80.37371,-8566.834,-770.584,75.73048
0.0165762,-10663.67,-1005.595,48.14374,-8543.264,-777.509,65.91925
0.01657671,-10642.27,-1006.308,41.94063,-8531.336,-759.9022,51.68126
0.01657564,-10667.53,-1004.912,30.15826,-8550.667,-770.6501,60.07326
0.01657564,-10635.75,-1006.382,54.51815,-8526.354,-767.5124,87.17382
0.01657667,-10670.38,-977.2963,48.74919,-8561.729,-725.8334,35.19845
0.01657492,-10691.84,-954.324,39.0593,-8564.729,-697.5714,73.96162
0.01657492,-10618.67,-989.3708,33.39535,-8513.178,-740.0109,69.46045
0.01657742,-10672.42,-964.2496,77.70153,-8549.929,-705.5927,78.46516
0.01657742,-10693.85,-929.1615,101.1971,-8561.8,-700.2556,143.4661
0.0165766,-10642.99,-918.6339,135.237,-8522.852,-702.1072,205.2438
0.01657641,-10585.56,-924.6855,128.9445,-8487.964,-717.4421,164.8703
0.01657641,-10568,-936.5582,101.0889,-8470.405,-719.7044,117.6007
0.01657766,-10631.34,-930.6204,95.85159,-8519.073,-720.5139,111.329
0.01659042,-10696.34,-983.3938,38.95414,-8577.601,-779.1577,100.2746
0.01659042,-10725.41,-991.5593,88.22422,-8599.555,-783.2817,172.0698
0.01657622,-10713.08,-1025.547,124.1984,-8580.968,-809.3236,181.3707
0.01657679,-10689.76,-1024.132,137.7157,-8558.521,-824.0176,205.2991
0.01657679,-10652.54,-1037.294,80.39566,-8534.449,-857.317,193.3781
0.01657927,-10697.3,-1077.92,148.6936,-8573.104,-882.983,238.4737
0.01657717,-10656.97,-1079.356,95.3387,-8542.179,-844.011,137.578
0.01657823,-10641.08,-1051.382,82.36735,-8530.086,-811.8042,111.0892
0.01958085,-10654.07,-1044.274,59.98937,-8531.232,-834.4655,157.8197
0.01657727,-10637.28,-1041.494,60.36715,-8522.896,-819.4233,162.306
0.01657727,-10636.54,-1057.543,41.6758,-8522.435,-833.491,158.0368
0.0179049,-10649.58,-1070.346,73.9352,-8536.908,-826.4732,138.4229
0.0179049,-10682.84,-1045.964,30.15828,-8562.319,-817.9426,150.7459
0.0165784,-10649.01,-1049.32,29.73204,-8523.094,-800.2095,148.3073
0.0165784,-10629.01,-1075.584,29.076,-8512.323,-790.5873,83.65142
0.01657851,-10660.77,-1007.217,66.22538,-8545.556,-805.0798,111.4109
0.01657929,-10687.29,-1006.184,-37.63013,-8556.903,-814.5914,97.84061
0.01657929,-10644.91,-1007.958,-41.04534,-8533.301,-774.7077,42.64637
0.01657733,-10641.28,-1029.603,34.55193,-8530.579,-788.8482,138.1476
0.0165769,-10658.09,-1055.962,12.39414,-8539.029,-842.7778,149.1954
0.0165769,-10630.21,-1073.825,-33.41565,-8526.604,-824.9592,104.5472
0.01657663,-10676.17,-1091.053,-71.81311,-8557.337,-745.7463,-53.05938
0.01657663,-10685.2,-970.5968,-6.830936,-8559.704,-734.6871,88.0036
0.01657571,-10673.61,-974.6277,6.014386,-8550.745,-811.7287,175.7315
0.01657833,-10652.29,-1023.735,73.04395,-8538.852,-837.6635,153.0921
0.01657756,-10676.44,-1014.696,-14.30703,-8548.453,-824.5821,67.37079
0.01657676,-10673.77,-1033.45,-77.52838,-8550.794,-851.3295,29.54822
0.01657861,-10776.33,-1059.335,-59.55159,-8629.033,-949.338,220.0751
0.01657646,-10726.1,-1146.154,46.32529,-8594.696,-1170.591,482.4526
0.01657646,-10741.7,-1242.473,78.97337,-8606.395,-1124.828,489.8362
0.01657921,-10645.16,-1238.482,86.99052,-8532.467,-1044.327,371.2522
0.01657688,-10640.78,-1183.838,-54.25216,-8529.285,-973.3728,173.7012
0.01657688,-10679.5,-1196.698,-117.7414,-8563.427,-988.9176,30.76476
0.01657856,-10655.77,-1225.916,-187.702,-8540.863,-1030.219,-27.50428
0.01657687,-10641.91,-1274.735,-234.7116,-8521.501,-1072.246,17.52975
0.01657845,-10625.02,-1322.851,-252.5759,-8504.328,-1147.657,61.45041
0.01657686,-10666.38,-1332.063,-231.5657,-8540.53,-1138.889,24.67282
0.01657686,-10633.18,-1351.139,-281.241,-8515.207,-1135.249,-53.62857
0.0165777,-10658.25,-1325.45,-346.9736,-8534.483,-1103.858,-122.0924
0.0165777,-10589.96,-1266.539,-421.5748,-8486.813,-1063.927,-106.2819
0.01657808,-10553.75,-1244.579,-525.7988,-8459.452,-1021.727,-184.5249
0.0165799,-10584.17,-1239.891,-517.8425,-8483.055,-988.7238,-278.7725
0.01657459,-10512.75,-1246.772,-553.1049,-8433.196,-985.9685,-317.6108
0.01657937,-10534.88,-1226.951,-575.8373,-8446.127,-988.8533,-241.6299
0.01657688,-10594.99,-1215.916,-507.6181,-8496.78,-943.9193,-187.89
0.01657598,-10627.2,-1189.44,-474.5619,-8516.991,-939.1084,-216.2127
0.01657763,-10613.81,-1194.846,-523.2637,-8506.711,-935.1415,-328.9073
0.01657763,-10629.2,-1173.177,-604.139,-8527.32,-918.2356,-388.3279
0.01657776,-10628.28,-1171.577,-666.1627,-8522.105,-902.5887,-254.2439
0.01657835,-10687.37,-1192.002,-591.4081,-8562.722,-912.6269,-348.1111
0.01657596,-10666.12,-1202.083,-607.0425,-8541.802,-964.8034,-348.1655
0.01657622,-10632.22,-1216.568,-684.9461,-8520.211,-1018.8,-465.5965
0.01657975,-10622.32,-1243.363,-773.7024,-8517.077,-1057.391,-537.2356
0.01657615,-10646.53,-1267.088,-785.0558,-8535.573,-1002.671,-564.7938
0.01657615,-10642.88,-1216.15,-778.2271,-8528.285,-945.8972,-521.4789
0.01657806,-10641.69,-1177.201,-773.8927,-8527.328,-961.6726,-456.776
0.01657945,-10624.3,-1186.088,-766.7557,-8514.022,-923.4373,-484.9159
0.01657835,-10621.91,-1162.538,-780.8923,-8507.798,-900.9306,-533.2053
0.01657835,-10629.38,-1163.304,-759.4346,-8517.985,-897.0654,-501.09
0.0165795,-10631.65,-1172.782,-759.7106,-8524.155,-911.7386,-458.0714
0.0165795,-10615.31,-1191.94,-720.7875,-8502.81,-913.5047,-449.8195
0.01657816,-10636.71,-1200.042,-739.6587,-8523.645,-866.8886,-497.7387
0.01657798,-10621.61,-1168.964,-738.2701,-8516.524,-879.8976,-438.9583
0.01657798,-10637.23,-1172.481,-736.2396,-8519.608,-890.806,-404.7906
0.01657749,-10648.44,-1125.59,-757.5966,-8528.14,-857.3683,-435.938
0.01657717,-10638.29,-1150.155,-797.837,-8533.625,-839.8596,-526.5395
0.01657717,-10645.76,-1114.86,-829.0379,-8525.994,-843.6367,-504.7339
0.01657648,-10628.8,-1122.493,-824.0571,-8517.438,-873.5731,-514.6124
0.01682554,-10601.22,-1121.231,-869.9626,-8491.978,-861.4321,-547.0298
0.0165777,-10569.68,-1111.026,-826.6434,-8472.468,-849.1221,-528.6624
0.0165777,-10525.08,-1059.734,-806.6777,-8438.649,-886.6247,-522.4958
0.01657298,-10589.31,-1142.962,-909.149,-8488.058,-1020.995,-670.2565
0.01657375,-10656.04,-1231.148,-912.9073,-8543.511,-986.1077,-586.4996
0.01657453,-10619.65,-1198.513,-878.1483,-8511.112,-871.3802,-586.324
0.01657846,-10626.95,-1131.719,-883.1521,-8507.806,-834.5242,-614.9676
0.01657808,-10611.1,-1077.153,-923.4803,-8491.252,-774.5449,-718.4537
0.01657815,-10602.91,-1128.086,-935.5251,-8493.912,-842.4028,-721.9774
0.01657815,-10663.72,-1130.346,-977.4218,-8540.385,-843.1643,-606.5292
0.01657802,-10628.21,-1118.873,-904.1045,-8513.096,-824.8352,-504.4632
0.01657802,-10612.82,-1079.544,-812.6843,-8496.895,-816.5908,-510.0346
0.01657779,-10610.44,-1095.659,-860.3688,-8499.548,-801.1774,-574.3304
0.01657779,-10602.54,-1069.699,-828.6612,-8497.99,-787.6843,-516.8282
0.01657738,-10590.33,-1060.783,-794.7487,-8493.154,-746.5494,-476.4019
0.01657584,-10587.82,-1029.678,-809.517,-8491.329,-758.349,-495.1614
0.01657584,-10569.9,-1012.516,-819.642,-8473.302,-728.4476,-535.4748
0.01657568,-10576.2,-1042.146,-890.4437,-8473.835,-752.8821,-571.5672
0.01657568,-10582.28,-1024.582,-875.7855,-8474.168,-732.8195,-519.2031
0.01657794,-10601.47,-1025.07,-842.3185,-8493.344,-798.8738,-547.0911
0.01657732,-10618.37,-1040.343,-923.4858,-8515.109,-773.0042,-626.2112
0.01657732,-10600.6,-1056.141,-1002.523,-8497.037,-786.0426,-741.5765
0.01657483,-10545.78,-1157.039,-943.8403,-8446.332,-901.3481,-671.1131
0.01657483,-10657.87,-1098.662,-906.1006,-8540.986,-1045.259,-321.769
0.01657847,-10670.27,-1146.219,-795.3649,-8554.641,-934.2104,-347.4389
0.01657576,-10625.04,-1066.352,-887.7098,-8506.556,-731.0916,-639.0252
0.01657576,-10641.36,-943.277,-969.9934,-8527.833,-613.9128,-810.6777
0.01657373,-10697.41,-874.3392,-1077.311,-8570.5,-561.2582,-710.1104
0.01657774,-10690.97,-849.4564,-1052.72,-8565.265,-592.5377,-618.3361
0.01657774,-10640.16,-839.9678,-1038.541,-8517.359,-569.5303,-654.2111
0.01657544,-10587.95,-857.574,-980.2935,-8486.355,-579.0933,-722.3536
0.01657818,-10626.42,-857.8651,-966.7077,-8511.458,-642.3125,-634.3345
0.01657817,-10614.64,-891.2567,-1009.974,-8502.472,-670.4833,-626.2595
0.0165782,-10587.88,-937.4976,-1024.655,-8490.959,-678.367,-685.7593
0.0165782,-10611.32,-942.5703,-1003.408,-8500.128,-730.2878,-650.9425
0.0165758,-10600.67,-1004.476,-1010.92,-8492.041,-753.7177,-703.5966
0.01658025,-10631.12,-1021.108,-1021.031,-8510.938,-789.2115,-676.972
0.01658025,-10628.94,-1030.26,-1023.687,-8513.668,-772.0967,-672.4196
0.01657858,-10628.78,-1018.016,-1003.391,-8513.516,-769.1635,-659.7913
0.01657858,-10597.62,-1013.368,-1037.937,-8480.838,-765.7169,-699.6404
0.01657633,-10552.78,-1029.415,-1030.526,-8455.588,-780.8726,-722.542
0.01657736,-10560.3,-1019.768,-1088.782,-8452.722,-765.8391,-773.4038
0.01657825,-10603.75,-1004.809,-1062.983,-8499.403,-722.1772,-772.3576
0.01657818,-10646.14,-975.8352,-1124.95,-8518.461,-725.8426,-749.2332
0.01657654,-10621.82,-993.1233,-1085.775,-8499.759,-714.1889,-686.5299
0.01657886,-10604.14,-995.3384,-1005.499,-8499.535,-722.5835,-658.6344
0.01657886,-10587.37,-987.3935,-1025.252,-8482.314,-711.2841,-730.3265
0.01657886,-10603.08,-963.3027,-1051.238,-8494.391,-705.1475,-742.863
0.01657672,-10602.37,-986.4304,-1042.931,-8489.438,-735.3881,-705.6091
0.0165761,-10611.9,-1012.902,-976.6859,-8510.033,-761.6815,-657.2067
0.0165761,-10608.8,-1012.967,-979.7202,-8498.757,-760.2254,-654.4637
0.01657859,-10640.04,-984.0463,-1027.662,-8518.167,-724.4747,-694.84
0.01657097,-10620.44,-993.2809,-1030.85,-8507.522,-731.849,-691.4263
0.01658618,-10593.41,-1010.013,-1021.561,-8486.858,-747.9513,-704.2495
0.01658072,-10607.58,-1001.225,-1030.237,-8506.603,-748.6556,-720.5324
0.01657563,-10621.58,-967.3786,-1070.311,-8508.415,-722.7789,-733.8661
0.01657563,-10608.52,-975.3585,-1063.702,-8502.833,-739.4872,-753.8342
0.01657791,-10613.11,-980.4276,-1121.984,-8501.906,-741.4465,-826.9247
0.01657646,-10614.6,-1005.203,-1161.947,-8498.613,-752.3365,-827.6061
0.01657624,-10596.57,-1043.38,-1129.811,-8484.847,-758.9775,-860.1805
0.01657882,-10639.28,-1029.467,-1078.943,-8530.806,-797.7755,-784.3422
0.01657882,-10653.28,-1025.732,-1118.228,-8536.929,-804.421,-728.6259
0.01657432,-10636.75,-1052.783,-1048.905,-8510.854,-801.9004,-763.9873
0.01657672,-10611.19,-1069.459,-1062.692,-8491.293,-803.6138,-768.1469
0.01657672,-10635.04,-1129.241,-1043.685,-8509.552,-845.4158,-733.3868
0.01657696,-10629.03,-1096.545,-1004.977,-8509.353,-845.5121,-686.2027
0.01658029,-10635.5,-1105.152,-1018.981,-8514.262,-816.3218,-712.668
0.01657921,-10634.77,-1091.42,-984.0123,-8513.661,-818.3502,-635.1649
0.01658083,-10585.53,-1075.058,-981.5691,-8480.461,-813.4345,-635.6187
0.01658083,-10586.85,-1075.603,-985.6035,-8481.609,-805.1503,-665.9056
0.01657621,-10587.85,-1052.553,-991.3121,-8482.501,-757.5593,-705.6655
0.01657621,-10658.44,-1017.305,-1034.052,-8536.484,-745.1348,-702.9429
0.0165773,-10638.66,-1051.179,-1016.466,-8521.207,-793.8757,-645.2149
0.0165765,-10618.01,-1080.717,-997.9271,-8500.934,-811.1342,-688.2896
0.0165765,-10633.52,-1056.135,-960.1129,-8521.653,-794.1836,-651.2142
0.01658156,-10621.62,-1058.642,-1011.751,-8503.643,-799.4001,-682.8495
0.01657463,-10601.19,-1040.443,-1041.559,-8492.488,-793.7804,-744.4181
0.01657905,-10612.67,-1050.561,-1039.785,-8492.463,-831.7111,-697.7582
0.0165809,-10598.3,-1066.216,-1001.803,-8477.101,-855.4803,-635.7715
0.0165809,-10582.21,-1078.701,-958.9689,-8473.789,-844.0728,-658.6519
0.01657657,-10586.46,-1068.701,-1008.833,-8481.599,-803.6099,-716.0292
0.01657657,-10629.1,-1050.99,-1104.779,-8514.236,-796.1628,-763.7368
0.01657745,-10619.66,-1048.649,-1089.973,-8502.52,-757.2997,-767.3115
0.01657484,-10590.72,-1023.454,-1049.195,-8471.541,-711.8812,-818.1454
0.01657484,-10628.05,-985.6349,-1036.852,-8513.432,-718.4517,-726.18
0.01657739,-10661.15,-986.5547,-1108.206,-8543.053,-765.707,-729.6613
0.01657739,-10602.74,-1001.861,-1035.348,-8489.402,-749.3028,-725.1014
0.01657777,-10551.76,-996.1041,-1021.889,-8446.114,-755.0273,-698.4898
0.01657846,-10595.32,-1011.705,-1018.225,-8479.629,-769.8369,-695.2295
0.01657846,-10581.17,-1016.452,-1040.202,-8468.892,-772.9577,-702.4069
0.01657375,-10585.25,-997.8234,-1033.536,-8485.412,-752.3969,-702.326
0.01658002,-10601.28,-1050.882,-988.0901,-8493.27,-767.8058,-704.2285
0.0165784,-10634.99,-1009.455,-966.4128,-8518.995,-759.3999,-647.6465
0.0165772,-10602.48,-1040.751,-1014.227,-8485.185,-752.0576,-679.9952
0.0165772,-10602.1,-1009.658,-977.0417,-8502.646,-709.2205,-736.9896
0.01657703,-10640.93,-964.8497,-1059.477,-8518.979,-701.4965,-758.9455
0.01657742,-10607.88,-1005.741,-1049.483,-8498.048,-722.171,-747.2341
0.01657742,-10637.27,-986.2285,-1033.725,-8516.051,-720.6712,-784.9207
0.01657991,-10698.58,-985.2228,-1031.38,-8567.18,-722.8077,-709.8433
0.01657715,-10709.68,-996.9533,-1048.137,-8579.744,-745.4499,-692.1895
0.01657734,-10644.71,-999.9197,-1011.379,-8529.796,-748.5742,-687.4164
0.01658079,-10625.23,-1000.11,-993.4368,-8505.999,-742.6389,-707.3398
0.01658079,-10602.61,-995.5908,-1025.404,-8493.207,-750.8456,-698.3192
0.01657979,-10592.93,-985.271,-973.1111,-8485.929,-768.1837,-622.7086
0.0165757,-10563.13,-1016.266,-928.8373,-8458.885,-775.7736,-636.8583
0.0165757,-10559.3,-1049.679,-968.8323,-8456.203,-780.143,-679.357
0.01657724,-10586.3,-1062.827,-954.9738,-8481.473,-793.3435,-691.8865
0.01657724,-10584.69,-1047.244,-985.7316,-8471.48,-808.391,-657.314
0.01657832,-10559.43,-1040.852,-1021.413,-8461.169,-793.0865,-779.6545
0.01657832,-10660.29,-1044.526,-1088.234,-8538.326,-808.519,-831.2393
0.01657623,-10641.57,-1088.319,-1112.821,-8514.947,-832.6663,-843.7086
0.01657623,-10674.51,-1052.236,-1021.018,-8535.542,-777.7097,-682.2838
0.01657594,-10669,-1021.188,-923.0032,-8539.979,-784.7078,-579.5969
0.01658588,-10627.88,-998.863,-901.4343,-8503.969,-772.6627,-574.1859
0.01656979,-10599.2,-1027.395,-872.3721,-8482.068,-779.8472,-632.8474
0.01657935,-10551.52,-1067.236,-899.9898,-8454.646,-833.2444,-604.4792
0.01657935,-10582.86,-1069.131,-867.5754,-8474.396,-796.5432,-584.2546
0.01657681,-10552.69,-1055.32,-907.9438,-8451.482,-759.5851,-614.9529
0.01657822,-10577.48,-1041.442,-947.209,-8470.624,-770.059,-629.0981
0.01657822,-10587.81,-1071.642,-945.9557,-8483.044,-810.8584,-621.8674
0.01657827,-10625.06,-1058.426,-934.9907,-8502.655,-819.7448,-537.1635
0.01657827,-10605.64,-1054.033,-882.6435,-8496.609,-794.9533,-516.8987
0.01657744,-10566.65,-1040.552,-865.3661,-8457.959,-738.9301,-656.1863
0.01657744,-10616.97,-1031.019,-932.2504,-8505.386,-771.9339,-630.0781
0.01657552,-10617.75,-1046.378,-988.7113,-8514.764,-784.2672,-708.0842
0.01658347,-10669.14,-1054.702,-993.8575,-8540.605,-790.8874,-702.3126
0.01658347,-10693.1,-1086.314,-994.7117,-8558.64,-853.1945,-624.6136
0.01657252,-10598.01,-1119.362,-962.8589,-8481.31,-867.6523,-626.8359
0.01657252,-10515.63,-1135.632,-974.5488,-8427.388,-863.1343,-694.2127
0.01657733,-10514.63,-1128.521,-969.4705,-8422.569,-791.759,-818.9579
0.01694668,-10616.55,-1084.84,-973.7105,-8496.29,-865.7724,-762.5143
0.01694668,-10703.95,-1084.841,-1048.762,-8567.363,-897.7353,-792.4115
0.0165773,-10706.98,-1148.965,-1037.945,-8573.704,-929.017,-841.8649
0.0165773,-10639.42,-1240.07,-1120.714,-8512.893,-940.5532,-764.4182
0.0165854,-10576.18,-1180.717,-1128.526,-8468.987,-822.3882,-785.4538
0.0165798,-10605.89,-1048.012,-1032.264,-8487.416,-701.5828,-737.2781
0.0165798,-10634.46,-949.3344,-995.2785,-8513.71,-655.2286,-633.3459
0.01658331,-10571.44,-923.4532,-908.1859,-8474.391,-650.0284,-607.5302
0.01658612,-10576.95,-963.4146,-850.1186,-8469.895,-675.4135,-594.6714
