Time,Ax,Ay,Az,Gx,Gy,Gz,Breathing,Ground Truth
20.64517,0,0,0,0,0,0,0,0
20.64517,972.926,2233.262,9360.762,-376.2335,633.2355,448.3862,0,0
20.82797,1074.113,3012.965,14304.09,-850.8193,434.0323,111.2235,0,0
20.84457,821.7685,3162.052,16699.61,-1063.954,386.7924,-493.4471,0,0
20.84457,749.2973,3225.815,18045.61,-1156.065,473.7915,-885.0836,0,0
20.84457,636.199,3042.969,18484.92,-1204.947,342.8613,-866.58,0,0
20.84457,678.9683,2925.873,18675.29,-1210.009,606.6801,-882.3252,0,0
20.84457,742.3311,2957.958,18865.9,-1194.705,869.566,-539.7798,0,0
20.84457,932.4977,3109.419,19165.07,-1193.079,828.0227,-558.5822,0,0
20.84457,1224.935,3195.748,19420.65,-1190.259,398.4419,-864.1009,0,0
20.91096,1682.96,3343.23,19675.57,-1197.274,-143.5714,-1921.259,0,0
20.91096,2325.369,3283.018,19821.91,-1187.485,-419.9403,-1573.166,0,0
20.91096,2272.777,3115.974,19565.3,-1184.148,-302.0506,-613.017,0,0
20.99394,2365.845,3086.475,19183.91,-1180.759,125.8104,-84.47622,0,0
20.99394,2193.085,3010.703,18676.87,-1185.425,360.8585,618.8145,0,0
21.02714,1776.819,2960.4,18365.18,-1174.682,647.4399,246.8186,0,0
21.06033,1461.757,2914.006,18127.3,-1168.528,643.0239,-461.6061,0,0
21.07693,1461.021,3001.662,18006.96,-1157.156,502.5689,-741.1751,0,0
21.12671,989.6742,3196.098,17773.04,-1149.99,-63.28296,-667.7666,0,0
21.15991,417.9636,3693.254,17576.87,-1141.771,-940.526,-998.2931,0,0
21.15991,43.2319,3834.941,17506.41,-1132.784,-1484.457,-1433.844,0,0
21.2097,153.7713,3646.753,17490.04,-1132.081,-1305.789,-1967.011,0,0
21.24289,510.3297,3365.099,17063.05,-1120.387,-1170.714,-1865.704,0,0
21.25949,924.9125,2739.953,16777.79,-1118.08,-783.3773,-2428.789,0,0
21.29268,1107.506,2442.584,16869.22,-1105.439,-482.8692,-3849.27,0,0
21.30928,1598.213,1860.309,17380.99,-1098.392,-562.2015,-5555.293,0,0
21.34247,3088.588,1886.261,17893.4,-1077.987,-708.5607,-6281.231,0,0
21.34247,3803.917,2004.925,18246.94,-1065.345,-804.044,-3617.365,0,0
21.39227,3778.082,1978.269,18416.97,-1058.777,-854.6213,-640.025,0,0
21.47525,3800.018,1949.536,18303.04,-1056.955,-960.3425,1545.722,0,0
21.47525,3316.882,2016.986,17958.01,-1049.952,-1601.116,1816.857,0,0
21.49185,3332.687,2161.056,17964.2,-1043.515,-2721.1,259.4909,0,0
21.52504,3891.969,1765.647,17959.09,-1037.584,-4349.875,-980.3567,0,0
21.55586,4414.708,1262.338,17548.27,-1027.677,-5180.887,-1134.113,0,0
21.57483,4437.801,1099.676,16985,-1019.233,-4524.294,558.7941,0,0
21.62462,3628.123,922.1414,16233.88,-1016.403,-2212.887,2437.789,0,0
21.62462,3068.07,1253.989,15868.35,-1009.061,-63.096,2764.896,0,0
21.65781,3097.09,1273.939,15970.93,-1007.18,716.2322,1902.44,0,0
21.65781,2993.66,1203.317,16245.99,-996.234,1098.703,1451.276,0,0
21.79059,2870.037,1002.503,16488.92,-991.6966,1682.706,1118.185,0,0
21.84038,2932.937,1091.106,16506.59,-987.6798,2590.5,1359.396,0,0
21.84038,2613.638,1346.758,16126.1,-988.5316,2661.217,1604.733,0,0
21.89017,2228.473,1481.522,15326.77,-984.2764,1908.933,1320.043,0,0
21.89017,1807.136,1544.377,14608.75,-980.578,782.2693,365.0402,0,0
21.93996,2110.183,1354.795,14802.32,-977.3392,-322.3603,-772.386,0,0
21.93996,2664.728,908.0826,15179.52,-978.9141,306.1495,371.2993,0,0
21.98975,2425.664,1332.329,15215.72,-966.4669,265.6178,1832.526,0,0
22.00635,1819.96,1474.058,15225.71,-965.4894,-829.8914,1298.108,0,0
22.02294,2304.283,1133.198,16053.26,-964.451,-1304.193,-858.9885,0,0
22.05613,3392.707,1130.414,16744.97,-967.8162,-1539.438,51.77234,0,0
22.07273,3362.449,1115.01,16995.59,-965.6973,-1986.176,1936.351,0,0
22.10592,3003.19,790.8049,16953.59,-972.6933,-2229.489,2376.041,0,0
22.12252,2910.373,498.9564,16818.68,-973.3714,-1874.669,2851.855,0,0
22.13911,2610.879,585.8684,16735.09,-978.0867,-1295.872,2506.991,0,0
22.13911,2428.657,840.593,16718.96,-972.6014,-1099.103,1946.711,0,0
22.2055,2324.506,868.5915,16455.65,-972.6254,-1211.201,1468.178,0,0
22.23869,2005.648,936.653,16537.87,-972.4479,-672.2409,887.0925,0,0
22.25529,2060.424,1081.689,16689.67,-967.6964,-429.0383,604.5046,0,0
22.27188,2196.164,858.7624,16601,-963.8953,-370.7773,509.892,0,0
22.28832,2081.133,675.8476,16491.43,-965.2712,-49.33027,196.328,0,0
22.33827,1932.755,391.0083,16323.08,-966.1848,788.9117,-717.3293,0,0
22.33827,2021.712,880.6226,16420.44,-957.8875,1187.88,-1446.41,0,0
22.38806,2207.937,1062.42,16630.3,-964.7208,747.3461,-1210.63,0,0
22.42125,2316.391,1144.308,16510.48,-974.2668,-163.0097,-608.0147,0,0
22.42125,2322.929,838.1917,16401.21,-972.5801,-543.436,-6.174457,0,0
22.47104,2245.881,646.7007,16558.49,-962.3041,-362.9052,225.1581,0,0
22.47104,2318.824,623.1497,16762.29,-967.6385,-122.4817,355.2578,0,0
22.52083,2487.604,532.0964,16866.18,-958.3309,100.9164,687.5147,0,0
22.52083,2586.46,477.0229,16811.47,-951.1332,502.7069,1279.569,0,0
22.55403,2353.509,580.2756,16593.49,-954.4344,744.6898,1443.275,0,0
22.57062,1941.308,791.1406,16518.11,-956.9073,816.7618,594.6589,0,0
22.60382,2033.151,642.9359,16561.06,-963.1742,821.012,-1445.966,0,0
22.6536,2153.958,772.9111,16673.52,-963.4721,1294.682,-2476.555,0,0
22.6536,2110.509,916.1266,16655.11,-963.634,1553.776,-3647.727,0,0
22.6868,2453.181,901.834,16225.34,-954.8325,1806.281,-3517.78,0,0
22.6868,2462.543,957.508,15929.23,-961.3483,1725.717,-3160.379,0,0
22.73659,2744.009,827.3284,15632.06,-957.4232,1365.344,-2323.269,0,0
22.73659,2480.979,870.8749,15116.52,-958.8093,813.6643,-1240.042,0,0
22.78638,2386.638,916.6004,14834.84,-950.9674,238.5438,-725.0599,0,0
22.78638,2542.458,783.3027,15121.62,-949.3743,294.6972,-654.537,0,0
22.83617,3002.46,968.548,15605.75,-948.1395,68.02095,-185.3476,0,0
22.86936,3042.919,1056.035,15879.7,-951.6141,-293.536,1037.736,0,0
22.86936,2937.16,1067.356,16093.94,-958.6869,-798.2576,1821.017,0,0
22.91916,3093.114,863.0384,16214.31,-959.6368,-845.6691,2375.838,0,0
22.91916,2893.039,1048.011,16239.28,-960.3292,-536.5801,2504.896,0,0
22.96894,2768.769,1227.071,16192.3,-960.8247,-571.0582,2202.754,0,0
22.96894,2505.701,1230.591,16003.96,-961.1703,-643.1756,1609.734,0,0
23.01873,2513.671,1197.214,16136.59,-952.5397,-613.0354,1000.633,0,0
23.05193,2452.202,1208.814,16221.1,-954.7832,-594.2197,756.6857,0,0
23.05193,2413.041,1134.104,16219.86,-956.4859,-530.7548,704.6729,0,0
23.10172,2398.8,1094.322,16193.97,-957.7712,-360.7708,576.8679,0,0
23.10172,2361.563,1151.188,16119.4,-949.8725,-231.0005,474.4751,0,0
23.15151,2323.411,1129.054,16081.98,-948.2552,-225.7027,379.9109,0,0
23.15151,2287.953,1037.639,16071.99,-960.3138,-214.3823,252.5365,0,0
23.1847,2286.747,1046.283,16109.63,-965.0903,-164.708,212.7916,0,0
23.2013,2259.677,1036.251,16157.08,-964.2811,-52.84356,243.829,0,0
23.23449,2226.137,1018.591,16134.38,-963.6299,-2.199951,271.0929,0,0
23.23449,2249.732,1052.739,16092.39,-971.9655,21.39372,307.3018,0,0
23.28428,2251.63,1014.585,16105.53,-965.0079,11.76925,379.6251,0,0
23.31747,2255.717,1064.07,16119.87,-972.9468,44.87785,435.6704,0,0
23.33407,2293.574,1086.375,16192.71,-965.6873,71.59119,557.7819,0,0
23.36726,2260.797,1071.204,16176.13,-960.1038,74.52824,716.9122,0,0
23.36726,2156.275,1071.692,16008.07,-955.8182,-6.088324,676.9408,0,0
23.41706,2122.229,1080.85,16014.66,-952.5373,-104.4975,491.8644,0,0
23.41706,2100.099,1135.404,16081.86,-958.8958,-148.7137,304.7286,0,0
23.46685,2145.825,1123.78,16139.9,-959.3258,-141.9195,275.7233,0,0
23.46685,2120.398,1102.515,16210.74,-955.2159,-182.2271,357.8864,0,0
23.50004,2108.098,1100.515,16253.56,-956.5026,-261.2844,547.1184,0,0
23.54983,2090.341,1077.827,16243.82,-957.4868,-339.6519,740.8888,0,0
23.54983,2080.604,980.6453,16266.99,-962.6684,-305.4415,779.2813,0,0
23.59962,1980.622,1005.014,16215.63,-962.1894,-296.2032,853.7509,0,0
23.59962,1915.881,978.3704,16182.68,-970.6717,-341.5851,872.0787,0,0
23.64941,1884.885,967.0062,16250.33,-968.2714,-316.8179,861.834,0,0
23.64941,1858.704,1005.024,16241.98,-970.8395,-271.6601,885.4597,0,0
23.6826,1788.588,1015.392,16240.83,-972.7759,-276.9353,892.088,0,0
23.73239,1753.632,936.9824,16244.11,-965.3634,-312.5228,814.0077,0,0
23.73239,1706.852,912.6382,16256.33,-964.1054,-365.4366,735.0008,0,0
23.78216,1703.138,875.4531,16294.2,-967.5638,-389.1383,702.3139,0,0
23.81536,1617.137,872.8204,16225.37,-965.7632,-393.766,632.358,0,0
23.81536,1598.996,812.4374,16212.37,-959.9412,-365.527,566.4538,0,0
23.86515,1554.139,754.487,16220.01,-959.9169,-312.2164,482.4917,0,0
23.91494,1564.197,779.3806,16248.98,-959.9006,-235.4258,408.1655,0,0
23.91494,1537.56,783.4227,16215.58,-959.8904,-170.4866,361.8767,0,0
23.94813,1508.306,814.6664,16177.7,-959.8847,-139.9813,297.541,0,0
23.96473,1492.564,830.0812,16201.86,-964.3136,-126.492,260.5027,0,0
23.99792,1546.966,832.2117,16175.97,-963.265,-110.8218,210.9097,0,0
24.04771,1564.046,824.1489,16172.76,-953.5939,-82.98371,164.8022,0,0
24.09751,1524.763,837.0877,16138.18,-959.5001,-53.63702,156.0515,0,0
24.1307,1539.858,802.9163,16156.1,-959.5939,-49.49985,172.2807,0,0
24.1307,1456.922,787.0233,16126.65,-955.2368,-17.85207,175.1519,0,0
24.18048,1466.357,812.8422,16115.28,-956.3442,-1.477361,170.2422,0,0
24.18048,1483.301,858.3344,16137.72,-961.6326,-2.907824,202.0009,0,0
24.23028,1489.289,841.2225,16145,-970.1092,-5.206305,239.8472,0,0
24.26347,1496.802,848.2161,16176.09,-963.2822,11.52032,262.5727,0,0
24.28007,1473.298,845.9467,16157.78,-962.4797,7.621112,238.4716,0,0
24.31326,1475.916,846.5532,16149.3,-948.5676,-24.2274,205.4194,0,0
24.31326,1478.55,862.6467,16183.84,-937.9443,-44.14798,163.3563,0,0
24.41284,1503.312,865.074,16196.93,-952.0192,-40.19615,167.3682,0,0
24.44604,1470.702,870.3212,16195.8,-949.519,-40.39765,139.6002,0,0
24.46263,1475.083,853.3394,16184.9,-947.6261,-42.93792,156.2231,0,0
24.49582,1423.553,880.3042,16195.34,-955.064,-57.50067,121.1908,0,0
24.49582,1442.303,856.6564,16234.28,-951.9024,-48.26854,135.5669,0,0
24.54561,1432.811,871.8564,16231.83,-962.7882,-19.17076,179.4051,0,0
24.54561,1414.98,891.2823,16219.83,-962.2473,-33.63769,193.0535,0,0
24.57881,1436.198,892.8478,16180.64,-966.2528,-83.90957,207.9084,0,0
24.5954,1463.972,871.8721,16151.73,-964.8681,-84.20023,225.2995,0,0
24.6286,1443.501,890.1859,16169.54,-977.0854,-90.53109,183.9279,0,0
24.71158,1493.574,893.118,16192.06,-964.2399,-99.53234,155.5346,0,0
24.72818,1473.447,886.4817,16208.16,-963.2555,-94.21682,155.9657,0,0
24.76138,1458.317,900.231,16223.74,-958.0622,-83.21493,179.558,0,0
24.76138,1459.219,941.7427,16197.89,-954.0903,-78.96365,201.1498,0,0
24.81116,1502.288,909.144,16219.06,-959.9252,-112.0167,274.8757,0,0
24.81116,1468.962,927.3412,16204.16,-955.5297,-91.85282,204.9958,0,0
24.86095,1451.433,933.4329,16223.72,-956.6048,-71.98058,170.1712,0,0
24.86095,1465.969,893.6882,16215.35,-957.4346,-73.98114,199.9296,0,0
24.89415,1417.491,923.0804,16236.57,-949.2117,-84.13684,266.0402,0,0
24.94394,1448.264,913.3926,16208.39,-951.8014,-116.8508,338.7734,0,0
24.94394,1469.838,893.7486,16151.33,-958.2316,-147.6494,428.593,0,0
25.02692,1423.374,921.9203,16095.55,-958.7237,-155.5867,410.8204,0,0
25.07671,1343.748,933.4623,16136.15,-954.668,-162.9021,328.7321,0,0
25.07671,1360.764,911.1985,16208.35,-951.571,-168.6241,297.0374,0,0
25.1265,1319.883,894.1259,16220.36,-949.215,-112.469,291.2721,0,0
25.1265,1352.175,816.8173,16244.98,-960.7247,-5.199716,274.0819,0,0
25.17629,1369.494,734.5578,16210.52,-960.6667,48.44973,213.0137,0,0
25.17629,1340.946,767.2269,16260.52,-960.6145,63.69802,118.7699,0,0
25.20948,1306.132,814.6823,16283.13,-964.9985,107.6859,-4.815151,0,0
25.25927,1280.986,861.145,16250.38,-955.0444,110.7275,-124.837,0,0
25.25927,1292.083,898.9738,16201.92,-956.2924,70.80276,-220.556,0,0
25.29246,1330.88,935.639,16227.96,-961.6831,-58.95411,-239.3286,0,0
25.30906,1405.174,977.9758,16199.1,-948.0768,-152.4817,-314.4103,0,0
25.35885,1558.523,990.2206,16203.59,-950.976,-202.2608,-341.3711,0,0
25.39205,1670.118,1018.181,16152.75,-944.349,-294.5983,-188.0262,0,0
25.40864,1654.221,986.1153,16189.28,-957.0301,-293.0321,12.9393,0,0
25.44184,1694.756,913.7192,16249.39,-971.1697,-374.1369,328.2263,0,0
25.49162,1674.298,834.9979,16215.55,-964.2366,-457.1718,475.4921,0,0
25.49162,1616.078,702.8781,16163.01,-958.9115,-524.6304,514.0024,0,0
25.52465,1493.657,687.4845,16180.49,-954.8312,-454.8663,535.6639,0,0
25.57461,1427.628,759.2624,16210.54,-960.5762,-536.7065,580.4266,0,0
25.59121,1392.748,794.5641,16235.74,-969.3994,-553.6263,666.6398,0,0
25.6244,1453.798,754.2009,16236.12,-971.6963,-458.2545,774.7468,0,0
25.65759,1449.669,745.7194,16252.94,-964.561,-471.8733,721.6199,0,0
25.67419,1310.336,650.8741,16223.62,-959.0848,-428.8092,478.4906,0,0
25.70739,1286.042,546.6087,16290.85,-950.4612,-390.3912,332.5719,0,0
25.75718,1263.457,416.5184,16314.45,-957.1732,-321.3055,317.9578,0,0
25.75718,1247.75,351.1169,16280.2,-949.0229,-227.813,277.0792,0,0
25.80696,1225.134,317.6238,16301.47,-942.8057,-124.4489,303.9837,0,0
25.84016,1200.578,344.0322,16296.52,-933.6507,-125.3789,316.5317,0,0
25.85675,1200.044,409.5363,16247.14,-944.4221,-143.002,297.287,0,0
25.88995,1211.23,450.4837,16251.38,-948.2662,-174.7334,263.1636,0,0
25.93974,1225.794,497.968,16243.51,-942.3643,-127.7236,242.9313,0,0
25.93974,1222.944,531.4774,16224.16,-942.3066,-75.08499,141.985,0,0
25.98952,1236.656,608.4628,16223.76,-955.5846,-9.385018,22.11979,0,0
26.00612,1296.229,635.4489,16231.24,-952.4533,44.8548,8.230213,0,0
26.03932,1322.074,595.2742,16186,-954.4901,63.63117,101.5176,0,0
26.07251,1271.064,618.9772,16122.67,-956.0477,101.216,154.4781,0,0
26.1223,1279.857,630.5952,16146.44,-948.3725,141.2382,198.8477,0,0
26.1223,1320.006,640.6803,16220.21,-946.9399,184.7304,368.3505,0,0
26.17209,1346.394,637.3774,16208.01,-950.29,210.876,585.9005,0,0
26.18868,1231.457,709.1293,16203.13,-961.7245,245.3232,693.7869,0,0
26.20528,1118.253,765.0615,16195,-961.5967,272.7964,578.1865,0,0
26.25507,1118.518,732.3155,16237.57,-952.6172,278.571,472.0901,0,0
26.28827,1073.806,723.7083,16249.06,-954.6074,205.4512,414.8269,0,0
26.30486,1073.387,724.7504,16302.1,-951.6983,87.65134,380.7117,0,0
26.33806,1040.384,768.635,16334.76,-962.7698,-92.01846,305.4245,0,0
26.38784,1095.476,871.8136,16252.05,-962.3635,-44.9907,326.7507,0,0
26.38784,1027.313,759.826,16229.66,-957.6021,22.06723,410.6452,0,0
26.43764,1066.535,627.3922,16225.81,-958.3807,127.0112,340.0748,0,0
26.43764,1115.847,618.1019,16380.18,-950.1062,211.425,403.7134,0,0
26.48743,1073.041,669.8808,16371.74,-952.6448,235.0731,458.0773,0,0
26.52062,1030.685,738.3763,16321.76,-954.5938,346.766,394.717,0,0
26.5704,1038.603,809.5363,16304.36,-956.0864,495.7307,268.8011,0,0
26.5704,1108.235,752.9606,16324.14,-952.7948,490.9684,159.5457,0,0
26.6036,1062.085,716.1559,16319.18,-945.8479,289.0867,160.784,0,0
26.65339,946.2098,752.1904,16354.01,-949.4121,374.3925,247.7079,0,0
26.70318,992.1177,940.2932,16319.53,-947.7213,280.0582,480.3284,0,0
26.70318,895.8871,1019.509,16162.28,-955.3038,153.6779,347.8665,0,0
26.75337,904.8318,1128.191,16097.51,-952.2431,113.5874,-46.62978,0,0
26.75337,965.4482,1080.858,16146.92,-949.9029,93.14136,-323.9921,0,0
26.78656,1036.65,999.5327,16175.03,-943.6886,66.18314,-291.1565,0,0
26.83638,1078.098,997.6562,16215.56,-947.8157,66.14912,-182.4274,0,0
26.83638,1181.955,1064.403,16253.31,-950.9879,124.667,-100.1128,0,0
26.86958,1212.595,1120.417,16233.44,-948.9892,143.1256,-97.54247,0,0
26.91938,1222.556,1165.902,16243.73,-956.3296,134.4697,-152.7563,0,0
26.93598,1246.583,1124.602,16280.41,-948.6468,167.3914,-239.1065,0,0
27.01899,1225.945,1123.342,16318.38,-938.342,210.1945,-222.016,0,0
27.01899,1152.338,1204.849,16278.59,-939.3474,206.1869,-179.5436,0,0
27.05219,1181.265,1201.123,16305.66,-940.146,164.6968,-50.48609,0,0
27.05219,1211.089,1184.254,16288.59,-936.3517,40.33392,93.01014,0,0
27.102,1219.375,1166.265,16259.93,-933.4794,-111.734,162.7307,0,0
27.1518,1208.945,1108.723,16240.19,-935.7493,-222.075,191.0279,0,0
27.1518,1183.109,1098.609,16206.27,-941.949,-309.6511,208.3208,0,0
27.2016,1207.581,1032.91,16226.95,-942.2789,-344.7363,191.6792,0,0
27.2348,1169.71,1017.881,16192.99,-938.1128,-351.7849,136.3678,0,0
27.2348,1186.117,964.1475,16193.71,-948.2382,-363.7146,102.2715,0,0
27.3178,1153.205,959.5682,16187.75,-947.1251,-339.8019,80.34912,0,0
27.46721,1146.866,967.1568,16154.51,-946.272,-276.3671,70.29125,0,0
27.46721,1136.514,923.114,16181.34,-950.0515,-217.7621,51.05853,0,0
27.55021,1110.925,906.1102,16198.68,-961.8,-169.1219,28.16418,0,0
27.55021,1116.933,892.1201,16209.83,-957.467,-112.7425,14.14464,0,0
27.69962,1195.855,895.9722,16222.85,-945.2639,-116.7796,27.71474,0,0
27.69962,1216.311,917.8991,16279.37,-949.2209,-153.5055,91.44608,0,0
27.73282,1267.287,1021.182,16287.07,-943.386,-197.7344,213.0886,0,0
27.73282,1307.177,1094.56,16220.84,-952.2233,-243.462,308.1615,0,0
27.78262,1272.029,1131.583,16155.75,-945.6862,-270.86,281.593,0,0
27.81582,1264.828,1106.356,16224.64,-945.118,-213.5584,161.4209,0,0
27.83242,1274.624,1028.008,16270.76,-949.1212,-161.3561,80.11139,0,0
27.86563,1248.679,1000.03,16282.71,-952.1834,-148.9254,72.7926,0,0
27.88222,1230.891,950.8704,16312.79,-950.0869,-153.6922,144.019,0,0
27.89882,1228.26,882.2885,16276.92,-944.046,-166.914,220.6521,0,0
27.91543,1178.533,847.7369,16238.29,-939.4305,-171.3527,241.4248,0,0
27.96523,1193.678,850.3891,16295.13,-935.917,-164.3558,171.2001,0,0
27.96523,1211.928,793.9881,16273.16,-942.1169,-147.7967,173.8341,0,0
27.99843,1253.56,786.6522,16277.32,-946.8755,-98.75941,251.6413,0,0
28.04823,1226.59,885.5641,16207.32,-941.6563,-24.69763,281.0333,0,0
28.04823,1195.908,970.3014,16161.57,-950.9656,16.008,251.9741,0,0
28.09803,1173.536,996.3406,16147.78,-953.6516,-15.16254,199.5717,0,0
28.09803,1197.461,1018.366,16199.48,-955.6916,-27.60843,162.6676,0,0
28.13123,1209.14,992.96,16241.38,-952.8019,-14.59757,177.6048,0,0
28.14783,1183.719,956.7862,16255.71,-955.0079,-24.7666,154.9324,0,0
28.18103,1193.096,940.1542,16223.43,-965.5424,-3.075255,107.3962,0,0
28.18103,1227.986,947.3878,16272.96,-964.7051,-3.005342,156.6997,0,0
28.23083,1164.901,964.0141,16234.36,-959.5958,-28.61935,167.5867,0,0
28.23083,1170.964,971.1752,16242.47,-955.661,-48.90247,150.9712,0,0
28.28064,1210.015,935.6237,16214.33,-957.0673,-71.14202,173.1596,0,0
28.28064,1226.591,941.6774,16250.44,-958.1293,-89.83819,184.8484,0,0
28.31384,1242.539,898.7015,16255.9,-954.4949,-60.35644,199.5502,0,0
28.36364,1219.198,925.7418,16211.29,-956.1364,-35.59999,146.1821,0,0
28.36364,1185.776,926.5598,16219.29,-952.9516,-1.501911,78.76751,0,0
28.41344,1197.89,934.9899,16219.91,-950.5107,40.50389,105.7203,0,0
28.41344,1210.499,963.6271,16201.6,-944.2142,35.85331,121.2156,0,0
28.44664,1193.546,1003.236,16147.77,-943.8427,18.49044,113.216,0,0
28.44664,1240.406,1004.627,16198.7,-952.4389,14.15797,158.4178,0,0
28.49644,1199.757,1005.561,16181.28,-954.5866,2.652002,195.4998,0,0
28.49644,1249.511,983.9946,16172.47,-951.7918,-45.05222,144.3,0,0
28.59604,1247.617,1006.187,16200.19,-962.9445,-49.17673,141.9503,0,0
28.59604,1240.53,1020.848,16181.58,-962.5941,-47.61772,169.8089,0,0
28.64585,1212.871,1010.88,16149.7,-962.3008,-55.2817,189.4347,0,0
28.67905,1223.813,978.7637,16166.44,-953.1908,-71.65145,191.9114,0,0
28.67905,1217.758,984.0525,16195.98,-950.6465,-84.67929,175.4402,0,0
28.71225,1215.321,963.6891,16180.97,-948.7043,-69.91809,183.5549,0,0
28.71225,1169.135,985.7717,16164.02,-942.7961,-58.01366,160.0729,0,0
28.71225,1192.584,970.5104,16185.48,-951.5897,-61.62128,147.6295,0,0
28.71225,1185.1,997.5932,16160.97,-949.462,-35.833,103.2332,0,0
28.71225,1203.797,989.4584,16201.03,-947.8394,-21.11018,105.9279,0,0
28.71225,1250.247,997.5854,16201.79,-955.4693,-36.49518,153.5289,0,0
28.71225,1235.859,992.6676,16211.23,-952.4403,-65.47678,163.1104,0,0
28.71225,1242.505,972.2375,16248.36,-945.6888,-38.33036,161.0059,0,0
28.71225,1246.41,993.1558,16232.36,-949.3968,-22.00225,148.2981,0,0
28.71225,1232.703,1035.714,16189.03,-943.3789,-46.67525,109.5008,0,0
28.99447,1222.164,1041.569,16181.38,-943.2217,-71.93884,101.5004,1,0
29.06087,1225.157,1019.314,16174.47,-938.6888,-74.88454,124.0181,1,0
29.06087,1226.318,1037.634,16165.92,-939.6777,-79.84741,146.3024,1,0
29.16047,1226.077,1024.946,16169.44,-931.5969,-58.92832,145.9187,1,0
29.16047,1212.576,1024.003,16175.53,-929.883,-58.40309,155.3205,1,0
29.21027,1195.603,1014.336,16201.3,-937.4772,-42.75392,176.3467,1,0
29.21027,1178.227,1011.309,16222.13,-943.3156,-39.93414,214.5334,1,0
29.24348,1196.031,1027.779,16225.83,-938.9319,-45.83535,240.8473,1,0
29.29328,1203.059,1019.259,16169.9,-931.1625,-58.39858,230.3214,1,0
29.29328,1225.08,1038.158,16203.58,-938.5429,-72.15499,215.1648,1,0
29.34308,1218.648,1019.296,16226.03,-939.7791,-72.66879,200.6626,1,0
29.34308,1205.954,1052.44,16184.45,-936.3067,-87.69298,177.0096,1,0
29.37629,1235.026,1013.442,16142.67,-938.0991,-95.51588,156.1042,1,0
29.39238,1253.91,999.0648,16226.04,-943.9174,-77.59324,142.8926,1,0
29.42558,1237.257,981.4202,16251.03,-948.3724,-58.56096,126.7397,1,0
29.42558,1208.946,992.3333,16226.83,-938.4792,-65.03722,113.9089,1,0
29.50847,1211.661,959.7238,16238.15,-948.6425,-80.22874,126.9111,1,0
29.52506,1220.4,988.0286,16254.49,-951.9817,-60.79244,86.26401,1,0
29.55823,1264.748,1028.561,16269.1,-950.0886,-63.91113,107.9329,1,0
29.60798,1215.506,1029.614,16238.04,-957.4883,-69.33733,157.3154,1,0
29.60798,1246.495,993.793,16241.9,-949.8306,-26.6667,190.4062,1,0
29.70748,1224.739,1037.284,16190.49,-952.8194,-23.15573,180.2029,1,0
29.74065,1180.376,1066.068,16202.15,-941.7975,-59.32623,114.7229,1,0
29.74065,1203.003,1090.175,16215.53,-942.231,-85.35505,79.36084,1,0
29.82356,1209.288,1069.662,16203.61,-947.0029,-107.4342,116.9899,1,0
29.84015,1184.21,1038.308,16247.68,-946.2225,-117.0241,138.4014,1,0
29.92307,1228.232,1119.487,16266.93,-954.4864,-155.5308,164.7879,1,0
29.92307,1243.076,1129.332,16246.1,-947.4998,-202.8012,231.4776,1,0
29.97323,1236.654,1060.177,16213.47,-951.0098,-160.3027,236.3693,1,0
29.97323,1226.153,1034.843,16242.77,-949.2551,-172.7073,203.0815,1,0
30.0064,1232.497,953.3957,16208.65,-947.9053,-137.6772,161.1442,1,0
30.0064,1227.353,1005.318,16202.5,-938.0067,-154.4924,171.6805,1,0
30.05629,1173.545,952.0665,16186.74,-934.8796,-120.132,176.6737,1,0
30.10611,1177.876,944.6987,16180.29,-932.5124,-154.134,196.5219,1,0
30.10611,1199.012,972.4715,16189.84,-935.1624,-183.0746,206.9282,1,0
30.15593,1220.774,977.2239,16222.69,-932.7836,-217.4953,220.055,1,0
30.15593,1223.021,956.578,16171.38,-930.9898,-190.9579,239.9476,1,0
30.23897,1226.939,1021.771,16176.5,-938.5092,-202.8475,227.0383,1,0
30.23897,1242.097,1020.698,16231.47,-944.2775,-223.3716,236.6886,1,0
30.27219,1230.377,973.3223,16223.65,-939.8284,-209.4814,273.0131,1,0
30.27219,1192.571,952.6435,16192.15,-931.9978,-221.9079,272.6318,1,0
30.32201,1202.456,919.2165,16210.18,-930.4586,-187.4444,298.7177,1,0
30.37184,1161.316,929.2749,16237.27,-942.6015,-175.6085,326.7404,1,0
30.37184,1094.496,946.0075,16214.75,-943.0341,-212.9828,281.1401,1,0
30.42166,1135.561,948.9686,16200.82,-943.3618,-207.3606,181.5083,1,0
30.42166,1142.801,913.676,16234.5,-956.9022,-234.7537,192.2444,1,0
30.45487,1130.761,896.8065,16262.44,-953.9404,-240.842,136.798,1,0
30.47148,1182.634,844.2219,16277.07,-947.2142,-189.0717,112.2298,1,0
30.5047,1189.149,810.9313,16246.03,-946.4858,-174.8347,160.9285,1,0
30.5047,1118.82,839.0029,16195.61,-941.4895,-208.2076,146.7877,1,0
30.55452,1169.282,827.562,16198.05,-946.5313,-172.4395,75.14355,1,0
30.55452,1168.089,855.669,16203.29,-945.9533,-220.3589,49.91941,1,0
30.60434,1157.254,802.0851,16231.71,-941.074,-233.0963,-7.569712,1,0
30.63756,1203.314,841.1585,16213.55,-937.3444,-262.6308,-42.56359,1,0
30.63756,1170.964,877.9521,16145.38,-943.366,-327.6754,-37.84126,1,0
30.68738,1173.927,826.4913,16113.29,-947.9765,-390.4108,-211.5688,1,0
30.68738,1268.173,776.2533,16134.38,-933.7707,-398.9054,-226.3172,1,0
30.7372,1329.062,697.1468,16187.26,-927.3478,-347.3197,-216.2813,1,0
30.7372,1365.384,696.9144,16211.17,-940.1919,-315.2406,-132.7788,1,0
30.77042,1372.857,711.6274,16202.87,-936.7374,-272.436,-47.82379,1,0
30.78703,1380.401,686.7628,16269.63,-934.105,-212.3947,-29.56357,1,0
30.86956,1476.628,693.666,16322.81,-936.5386,-61.75842,183.225,1,0
30.86956,1438.932,732.6062,16290.14,-933.9821,11.38231,540.0134,1,0
30.91938,1273.334,732.8162,16195.15,-932.0414,39.71094,601.3273,1,0
30.95255,1252.832,698.9221,16165.67,-935.007,40.05946,427.175,1,0
30.96915,1285.874,684.3989,16174.24,-941.7212,35.90876,281.1981,1,0
31.00235,1292.262,680.2919,16239.61,-942.4267,17.27491,244.6986,1,0
31.00235,1269.366,674.1795,16239.74,-951.8235,7.840959,222.8929,1,0
31.05214,1246.264,723.0244,16205.44,-945.6971,-0.04143966,239.2669,1,0
31.05214,1176.533,719.6509,16162.58,-949.8569,-17.77388,147.7543,1,0
31.13513,1182.042,722.8177,16236.23,-953.0211,-74.28281,63.03978,1,0
31.15173,1300.531,660.0737,16248.26,-946.5541,-44.29022,15.30233,1,0
31.18493,1304.723,705.4167,16261.81,-941.592,-58.63135,140.5471,1,0
31.18493,1179.299,764.7112,16154.65,-942.2257,-131.7993,101.8663,1,0
31.23472,1210.837,748.1274,16224.51,-947.1425,-116.0611,5.889408,1,0
31.26792,1219.568,735.5176,16261.37,-942.0334,-125.6196,-42.34302,1,0
31.28452,1273.955,717.1132,16316.06,-942.5541,-106.8889,7.838595,1,0
31.31771,1311.101,709.8185,16305.63,-942.9529,-125.5333,80.61164,1,0
31.31771,1307.267,726.5488,16254.25,-943.2574,-150.8707,70.23775,1,0
31.36751,1357.371,699.5891,16302.36,-943.489,-128.0989,102.2903,1,0
31.36751,1383.305,670.2525,16294.71,-948.0956,-95.68965,192.2257,1,0
31.4007,1268.825,680.1452,16195.64,-942.7476,-169.5291,200.5302,1,0
31.4173,1214.397,718.9314,16158.66,-943.0844,-251.1518,-35.35923,1,0
31.4505,1282.52,705.5154,16196.99,-943.342,-315.8369,-255.2044,1,0
31.4505,1355.685,654.371,16186.54,-943.5385,-352.1839,-291.6614,1,0
31.50029,1400.414,629.8431,16167.55,-948.1189,-340.1835,-254.6835,1,0
31.53349,1426.598,622.4175,16144.29,-942.7516,-339.9638,-271.2884,1,0
31.55009,1467.341,600.3941,16167.66,-938.6432,-318.6022,-275.4738,1,0
31.58329,1557.927,565.0143,16166.83,-944.3709,-248.7234,-187.3743,1,0
31.58329,1544.688,599.236,16175.18,-939.891,-239.9212,-94.77763,1,0
31.63308,1514.054,603.5633,16141.78,-945.3307,-242.7422,-118.9048,1,0
31.66628,1512.301,612.6698,16201.67,-936.1966,-218.4601,-139.5843,1,0
31.68288,1630.179,629.8312,16312.89,-942.5126,-122.2543,68.40148,1,0
31.71607,1562.448,614.334,16328.02,-942.9179,-109.1308,412.1902,1,0
31.73267,1563.281,610.4156,16343.75,-943.2277,-1.22889,656.4283,1,0
31.76587,1569.001,609.8224,16255.8,-930.1699,28.33708,896.7546,1,0
31.81566,1430.03,641.6768,16137.43,-937.9262,70.15976,927.8246,1,0
31.81566,1304.698,692.7515,16134.52,-935.0125,-16.6271,709.2507,1,0
31.86546,1277.629,639.881,16139.15,-928.3664,-19.69575,433.3681,1,0
31.89865,1308.126,616.1124,16237.04,-936.6021,-21.78181,267.4886,1,0
31.91525,1358.244,626.864,16311.94,-942.9178,-22.81743,285.6918,1,0
31.94883,1303.612,598.6531,16254.95,-934.4543,-97.80817,350.3727,1,0
31.98203,1312.916,633.7253,16308.72,-936.8508,-81.3418,436.6522,1,0
31.99863,1294.705,562.0671,16285.44,-938.6938,-77.41444,668.8979,1,0
32.03187,1204.502,635.9517,16239.77,-940.1083,-109.9565,767.286,1,0
32.08169,1111.446,718.0626,16247.99,-950.0535,-165.078,766.0518,1,0
32.08169,1078.443,726.5121,16222.11,-953.2134,-190.552,733.4754,1,0
32.1149,1048.262,725.075,16223.36,-955.6028,-204.0719,679.5353,1,0
32.16471,1047.976,647.3955,16206.62,-948.5359,-199.8305,566.7717,1,0
32.21452,1053.925,597.9388,16175.02,-943.1094,-161.5158,464.9491,1,0
32.21452,1052.413,632.244,16191.94,-934.5215,-135.154,358.4814,1,0
32.26433,1045.161,646.4012,16218.28,-941.2582,-132.6897,301.0678,1,0
32.26433,992.5105,657.2793,16208.54,-941.9871,-137.4515,216.5436,1,0
32.31415,992.7105,613.5516,16218.85,-942.5452,-126.4096,116.7156,1,0
32.34736,967.9816,654.4058,16238.94,-942.9712,-128.4964,149.6794,1,0
32.36396,948.5621,602.6122,16226.59,-943.295,-170.8173,93.39211,1,0
32.39717,980.8548,566.4099,16313.5,-939.1088,-171.0061,18.17174,1,0
32.4802,1069.249,569.9195,16285.68,-931.4794,-150.571,57.66129,1,0
32.53002,1044.159,561.7197,16248.73,-930.0938,-130.7377,130.8451,1,0
32.61304,1026.383,574.4735,16259.17,-937.922,-142.1556,137.1208,1,0
32.61304,1024.201,588.8287,16283.72,-948.354,-115.9912,135.6114,1,0
32.66285,1049.454,562.2704,16284.67,-947.4608,-64.43644,197.9177,1,0
32.66285,1064.617,550.9694,16279.75,-942.3304,-42.30335,299.2285,1,0
32.76248,1026.584,581.2788,16268.14,-947.2623,-37.75624,389.7209,1,0
32.76248,1047.6,585.7607,16177.2,-942.1623,-44.18095,399.4359,1,0
32.8455,1020.708,603.6841,16220.73,-938.2563,-58.97959,440.9035,1,0
32.8455,956.0766,610.8038,16205.36,-939.7051,-37.77105,337.3856,1,0
32.89531,942.4489,622.9255,16193.67,-936.3876,-78.76677,255.2266,1,0
32.89531,943.5123,544.6835,16240.21,-938.2908,-82.81428,241.4141,1,0
32.92852,920.349,540.3438,16252.57,-944.1862,-115.8858,224.8495,1,0
32.94513,855.4044,614.7471,16201.06,-944.2615,-174.9763,185.9937,1,0
32.97834,853.8699,635.1528,16215.98,-939.8808,-238.0638,88.88842,1,0
33.02814,992.8086,531.0792,16258.47,-940.9612,-221.5395,52.36466,1,0
33.02814,1060.591,580.0912,16316.43,-941.7893,-203.6572,166.7008,1,0
33.07796,998.3876,580.0221,16300.78,-937.991,-213.3172,271.6219,1,0
33.07796,919.8882,566.7398,16290.87,-935.0905,-188.1096,206.78,1,0
33.16098,973.1038,556.6619,16283.17,-941.7463,-178.0947,141.1677,1,0
33.26061,951.9952,582.2905,16268.32,-933.5467,-170.3276,160.4169,1,0
33.26061,943.8087,570.9396,16277.95,-936.1481,-152.9505,137.4043,1,0
33.29382,954.386,547.9154,16242.04,-933.7189,-184.4816,-1.563229,1,0
33.31042,975.9695,558.1004,16241.16,-936.3055,-179.7192,-17.13214,1,0
33.37684,933.9112,502.8427,16267.09,-947.1569,-159.9238,-39.0193,1,0
33.39345,906.3602,522.784,16311.27,-951.0166,-169.6583,-68.49294,1,0
33.44326,999.6432,475.0637,16342.74,-945.0835,-129.4213,-43.63929,1,0
33.44326,1120.959,432.1378,16333.39,-944.9613,-108.0718,53.46076,1,0
33.52628,1069.582,494.8886,16230.78,-944.8582,-97.63248,167.1235,1,0
33.52628,916.0233,589.6437,16143.43,-949.2015,-163.4197,58.88273,1,0
33.55949,944.9291,541.3907,16134.43,-952.5085,-170.8143,-210.4249,1,0
33.65912,1144.483,504.5056,16274.05,-950.584,-130.1597,-182.8528,1,0
33.65912,1145.2,493.026,16323.29,-949.0909,-143.3774,8.226381,1,0
33.69233,1082.308,447.8438,16250.04,-947.9329,-199.1964,98.84509,1,0
33.70894,1047.315,463.3625,16198.38,-955.8973,-185.3072,112.8661,1,0
33.79196,1075.873,430.037,16214.35,-939.8099,-202.5533,72.63319,1,0
33.80856,1140.838,436.9253,16261.01,-936.3646,-153.8713,82.34829,1,0
33.84177,1093.948,480.1123,16233.56,-929.3133,-202.4464,185.3938,1,0
33.84177,1041.3,453.4898,16214.79,-932.8102,-200.7475,104.5818,1,0
33.9439,1049.735,497.5447,16223.76,-935.5112,-192.6911,-42.86061,1,0
33.96051,1122.646,504.7618,16256.16,-937.5952,-203.0558,-21.90356,1,0
33.99372,1098.522,480.4279,16225.56,-934.7695,-242.461,64.22742,1,0
34.02693,1156.369,374.3844,16257.56,-928.1908,-221.483,10.60616,1,0
34.04353,1201.519,377.7323,16247.69,-927.6155,-213.8748,82.18589,1,0
34.07674,1196.972,354.0326,16192.49,-927.2055,-206.282,120.1143,1,0
34.07674,1184.313,408.2555,16230.11,-931.3525,-164.106,205.3002,1,0
34.12656,1134.472,384.6266,16270.03,-938.9774,-191.9336,226.7706,1,0
34.12656,1149.35,391.1634,16229.62,-940.3835,-175.5314,197.4798,1,0
34.17637,1200.461,401.9354,16243.03,-941.4561,-158.2614,233.542,1,0
34.17637,1191.687,339.4733,16245.54,-937.8395,-166.6783,321.7871,1,0
34.22618,1073.95,340.7172,16106.76,-939.5041,-189.2025,298.8569,1,0
34.22618,1001.579,371.8864,16183.61,-936.3458,-226.3515,264.828,1,0
34.276,1044.984,376.0271,16256.97,-933.9333,-155.8003,142.0885,1,0
34.30921,1143.687,363.8815,16277.64,-940.96,-133.4023,177.7245,1,0
34.30921,1134.938,361.4398,16233.54,-941.9031,-109.9829,323.7421,1,0
34.34241,1032.864,365.3145,16174.3,-942.6174,-124.8817,260.9214,1,0
34.35902,1087.787,399.4847,16191.12,-938.7239,-93.74603,172.1344,1,0
34.39223,1048.977,382.5374,16193.02,-935.7433,-189.1695,162.5618,1,0
34.40883,1082.503,334.2395,16196.78,-942.3312,-168.8407,64.6674,1,0
34.44204,1186.84,291.9548,16255.13,-947.3672,-144.1258,64.71814,1,0
34.44204,1198.918,280.9491,16246.56,-946.772,-141.5912,259.9489,1,0
34.49186,1110.428,295.0095,16227.77,-937.4365,-90.4059,267.9333,1,0
34.49186,1090.28,323.7798,16204.52,-939.1566,-108.4368,269.6303,1,0
34.54119,1083.737,278.4286,16212.25,-944.9061,-130.9475,253.5069,1,0
34.5744,1100.919,270.5831,16231.51,-944.865,-103.3766,233.2072,1,0
34.5744,1052.032,329.1233,16251.78,-940.3907,-133.6227,238.2951,1,0
34.62416,1001.416,346.3914,16266.13,-936.9644,-170.9491,177.2398,1,0
34.62416,1090.281,339.7635,16306.94,-943.2112,-123.3195,96.71059,1,0
34.65735,1122.875,324.8195,16244.96,-952.4182,-132.8911,210.0056,1,0
34.67395,1062.454,330.1251,16240.67,-946.1453,-121.705,264.2709,1,0
34.70714,1048.388,350.9158,16279.48,-945.761,-102.9578,196.7746,1,0
34.72374,1064.304,358.0283,16282.5,-941.0248,-112.527,169.9852,1,0
34.75692,1083.196,329.1679,16242.61,-937.3994,-125.4705,199.91,1,0
34.75692,1077.729,294.986,16245.29,-939.0643,-75.04819,226.3828,1,0
34.77352,1063.594,285.6078,16270.6,-935.913,-75.64995,273.9697,1,0
34.79011,1104.892,183.3456,16291.02,-933.5123,-80.4144,390.5139,1,0
34.85649,1053.381,150.8864,16251.15,-940.554,-93.3317,390.9299,1,0
34.88968,994.0757,208.4861,16189.58,-937.083,-113.0076,404.3704,1,0
34.88968,890.1668,249.5791,16221.23,-938.8644,-128.1133,354.1078,1,0
34.93946,899.6777,287.8882,16292.04,-940.2316,-104.5088,190.1291,1,0
34.93946,1017.034,248.6331,16306.26,-936.8472,-118.0653,199.2658,1,0
34.98925,1082.623,228.7293,16261.61,-943.126,-105.7578,311.0184,1,0
34.98925,946.6708,286.8248,16228.5,-947.9261,-160.6372,309.7008,1,0
35.02244,832.8681,346.8879,16134.5,-947.1519,-270.4285,73.37414,1,0
35.02244,1018.771,245.4635,16250.02,-946.5435,-258.0541,-199.6962,1,0
35.07222,1170.029,228.9014,16327.37,-941.6331,-214.5004,25.10293,1,0
35.07222,1062.865,125.5786,16319.93,-937.8724,-169.6255,140.0472,1,0
35.12201,988.5255,225.2547,16249.8,-935.0009,-161.7974,165.8715,1,0
35.17179,943.9285,206.4772,16222.69,-932.8167,-103.4264,131.697,1,0
35.17179,984.2409,246.5892,16277.33,-940.0256,-119.4916,146.1002,1,0
35.20498,1010.805,234.1987,16275.9,-941.1148,-107.2071,285.174,1,0
35.20498,980.2435,140.6425,16247.04,-937.5157,-113.399,337.6918,1,0
35.25477,985.7731,166.8334,16238.25,-925.9041,-42.6015,299.4511,1,0
35.28796,926.9692,211.5178,16228.23,-939.2032,-76.41923,310.9166,1,0
35.28796,939.7899,253.6251,16217.29,-944.9554,-73.65048,264.049,1,0
35.33774,949.8036,258.2015,16223.39,-944.9155,-72.22327,167.3797,1,0
35.35434,941.0161,282.7716,16221.47,-949.3036,-119.4546,181.2603,1,0
35.38752,955.5098,227.3202,16254.4,-943.7791,-84.73464,130.7496,1,0
35.38752,1034.314,166.121,16256.33,-948.4036,-52.70724,153.4635,1,0
35.4705,1023.689,179.3151,16202.39,-943.0638,-61.86233,192.8541,1,0
35.48709,960.1282,229.4871,16165.63,-943.4017,-17.49552,129.7018,1,0
35.52028,953.6736,253.5607,16205.24,-939.224,-70.9977,53.26536,0,0
35.52028,959.9355,233.2187,16245.62,-944.8927,-91.00962,40.77562,0,0
35.57007,979.2358,240.9535,16246.61,-931.4995,-44.61357,98.86248,0,0
35.57007,1014.007,200.3738,16276.15,-934.5617,-60.75027,115.8377,0,0
35.61985,1048.353,220.3818,16242.18,-928.059,-68.22331,142.5485,0,0
35.65304,1005.854,228.0135,16217.27,-927.5406,-76.79382,140.6388,0,0
35.65304,984.3863,262.7045,16278.02,-931.6042,-24.41972,53.67019,0,0
35.70282,1044.432,208.3571,16250.22,-934.7336,-8.587418,55.48291,0,0
35.70282,1072.585,214.4702,16280.97,-932.7079,1.116315,50.20172,0,0
35.83558,1075.148,292.3376,16311.08,-931.1707,-6.070154,113.9871,0,0
35.93515,1030.425,295.3446,16315.14,-938.8727,-26.99118,166.238,0,0
35.93515,1007.216,296.4212,16289.29,-931.4739,-62.79986,157.1843,0,0
36.06791,1053.712,251.7113,16277.15,-939.1175,-89.97538,133.3401,0,0
36.06791,1060.415,286.1596,16282.21,-936.1039,-56.19161,153.0649,0,0
36.15088,1059.901,277.0034,16390.15,-942.6623,-11.81731,224.3799,0,0
36.15088,1052.76,284.3371,16379.43,-943.2405,-37.25988,360.2312,0,0
36.25045,980.7471,261.0784,16325.52,-948.1016,-30.23709,387.0455,0,0
36.28364,1005.467,244.3652,16289.66,-938.5063,13.26422,356.9216,0,0
36.28364,1001.165,238.2432,16302.04,-922.2971,44.16403,401.8366,0,0
36.36661,960.247,276.8014,16305.91,-927.6494,27.96387,444.0271,0,0
36.36661,850.3994,299.6259,16263.39,-936.2029,22.28003,441.1321,0,0
36.38321,796.5906,338.0471,16281.82,-938.3234,-35.97904,351.1339,0,0
36.3998,883.2833,391.6484,16343.55,-935.5129,-111.3595,253.9526,0,0
36.46618,914.4766,359.2695,16275.46,-937.7961,-129.8771,228.7882,0,0
36.46618,896.4386,297.7074,16270.96,-935.1115,-107.0352,203.993,0,0
36.51597,866.2171,301.4745,16253.14,-928.6294,-88.8698,182.8622,0,0
36.51597,828.9426,313.1615,16214.08,-936.9797,-105.0766,178.7079,0,0
36.56575,800.7427,289.8993,16199.83,-938.9413,-96.3316,165.9536,0,0
36.59894,849.331,289.788,16261.11,-936.0063,-91.7717,139.9912,0,0
36.59894,871.2775,302.9737,16303.62,-938.192,-69.93716,189.27,0,0
36.64872,863.896,314.1248,16301.75,-939.8619,-102.5071,189.4064,0,0
36.64872,876.1619,277.1666,16292.49,-945.5645,-87.20213,144.1559,0,0
36.69851,879.0601,279.9021,16333,-941.0479,-88.73231,157.0354,0,0
36.69851,905.7887,237.6927,16335.07,-937.5809,-104.2597,180.5966,0,0
36.7317,835.4811,248.6857,16282.24,-943.7888,-92.80504,211.4429,0,0
36.7317,812.8953,248.3163,16270.58,-939.6649,-100.049,136.1789,0,0
36.78149,833.5376,273.5857,16318.18,-940.9345,-105.2559,65.42419,0,0
36.78149,953.6836,224.2589,16286.96,-933.0373,-55.71941,98.26031,0,0
36.83127,930.3767,213.2021,16249.76,-935.8652,-70.73716,229.7059,0,0
36.83127,813.9062,259.1629,16260.12,-933.6042,-78.64728,207.5694,0,0
36.88105,857.9102,235.6685,16295.8,-945.1765,-8.811357,102.5124,0,0
36.88105,937.1541,255.4258,16309.79,-945.1569,15.97735,216.9827,0,0
36.91425,889.2003,256.1826,16286.09,-940.6937,18.68635,294.3161,0,0
36.96403,904.6013,278.9447,16251.32,-937.2708,86.47182,307.8612,0,0
36.96403,852.1537,373.8911,16215.9,-934.6528,48.28966,328.7667,0,0
37.01381,847.5811,315.6172,16153.49,-937.0885,6.07139,278.8347,0,0
37.01381,889.6396,334.0417,16216.78,-925.6626,65.84108,250.6828,0,0
37.06359,895.2885,304.8062,16235.45,-925.806,34.62733,339.5403,0,0
37.06359,833.1622,336.642,16182.25,-934.8059,1.966846,331.3972,0,0
37.09679,854.4399,283.3384,16204.86,-928.4083,43.06279,229.0765,0,0
37.14657,900.7468,327.8257,16271.04,-932.3918,56.62468,223.5652,0,0
37.14657,947.2699,345.1671,16276.27,-926.5887,62.65232,306.3184,0,0
37.17976,909.6555,369.3828,16219.3,-935.4615,115.8057,331.2761,0,0
37.19635,931.7878,337.8832,16196.83,-937.8242,194.1271,362.8902,0,0
37.22954,835.6614,402.2838,16196.38,-930.7653,196.557,434.158,0,0
37.22954,744.4887,487.9006,16130.81,-938.6656,171.0863,369.7419,0,0
37.26273,685.0122,495.4099,16169.51,-940.2758,144.5562,262.8177,0,0
37.26273,675.4058,464.1675,16233.67,-937.0663,70.77121,154.6327,0,0
37.32912,738.3225,371.2253,16276.16,-939.037,67.06758,142.9496,0,0
37.32912,759.1068,418.4984,16276.48,-936.1073,32.29241,206.0019,0,0
37.36231,705.4675,422.3653,16237.87,-938.2951,24.21867,184.869,0,0
37.3789,754.4805,411.8311,16264.82,-935.5338,41.87148,213.7011,0,0
37.39549,767.854,400.2766,16266.57,-942.2834,18.25081,257.7277,0,0
37.39549,771.6195,463.3082,16287.8,-943.0059,75.80398,295.8321,0,0
37.46225,717.0507,517.9469,16313.92,-939.1123,50.52755,356.1778,0,0
37.46225,664.4643,542.7808,16321.58,-940.5569,56.33528,308.7891,0,0
37.51207,675.5427,534.7853,16363.84,-946.0857,93.68713,293.4168,0,0
37.51207,727.5665,528.2825,16328.36,-950.298,124.3648,292.0792,0,0
37.54528,722.1752,586.1042,16262.27,-949.0621,87.55271,331.6838,0,0
37.57848,660.6376,593.3582,16278.13,-943.6591,82.24831,322.5093,0,0
37.59509,638.2219,610.6448,16271.42,-943.9422,81.701,306.481,0,0
37.62829,609.2388,602.3632,16302.82,-939.7166,39.93615,285.8045,0,0
37.62829,625.1267,624.4012,16271.39,-936.4805,59.77053,307.0433,0,0
37.6781,582.2557,620.8828,16268.36,-920.7162,79.36406,309.0924,0,0
37.6947,558.7281,645.4649,16272.69,-913.121,20.35076,277.3384,0,0
37.72791,592.14,629.4915,16236.12,-916.2276,32.01369,227.5365,0,0
37.72791,577.0967,561.4797,16236.99,-914.2242,21.04574,231.0565,0,0
37.77771,585.8964,610.0062,16227.76,-908.3102,30.16154,259.0501,0,0
37.77771,553.0892,591.4614,16190.87,-917.1378,6.99443,247.2745,0,0
37.82752,578.2153,570.3652,16215.97,-915.0725,-3.173419,185.9648,0,0
37.84412,599.9832,603.8774,16223.11,-922.3942,29.03448,173.5556,0,0
37.86044,563.7204,624.8514,16254.13,-923.5903,1.381716,206.9166,0,0
37.91053,591.6612,620.6799,16267.91,-920.0919,8.550803,161.1286,0,0
37.91053,632.1208,654.8868,16287.3,-926.3,-14.96836,168.9426,0,0
37.96034,615.5886,660.8073,16294.31,-931.0618,-22.05249,121.6661,0,0
37.99355,628.5656,642.8578,16250.85,-930.2731,-18.20413,31.478,0,0
38.04336,660.7747,618.878,16258.58,-929.6678,-34.80433,-0.8064522,0,0
38.09317,661.0989,623.5865,16293.31,-929.2045,-3.60708,-3.660375,0,0
38.09317,634.7907,624.7819,16263.32,-928.8508,-27.5649,9.904252,0,0
38.12621,661.2662,537.994,16293.52,-924.1508,7.66267,-47.93684,0,0
38.12621,702.6104,616.6935,16326.54,-929.4274,97.25726,-71.43961,0,0
38.17618,682.1247,650.2076,16291.85,-924.6051,54.6174,-13.23521,0,0
38.20938,668.6316,685.6101,16255.25,-929.7863,62.3302,-75.15025,0,0
38.20938,699.2992,676.9673,16212.86,-929.3206,13.31226,-141.9539,0,0
38.27579,774.785,693.35,16258.08,-928.9634,-5.076841,-126.7943,0,0
38.30901,789.141,702.2833,16303.79,-928.6904,9.167607,-64.45877,0,0
38.32561,772.1785,725.4477,16219.06,-932.9135,-11.7371,-35.14309,0,0
38.39202,750.1231,747.2843,16215.22,-940.5693,-39.5673,-77.45441,0,0
38.40862,778.5143,789.1191,16263.35,-941.9733,-64.88435,-128,0,0
38.49164,782.3278,776.3957,16272.5,-951.8821,-84.07082,-77.29604,0,0
38.49164,779.5102,754.0785,16245.14,-937.2626,-100.4673,-113.4465,0,0
38.52484,793.7891,765.4789,16228.66,-926.0555,-88.66813,-84.75999,0,0
38.62446,824.4582,748.4048,16273.72,-935.2136,-75.81651,-71.88034,0,0
38.64106,850.9987,755.0064,16267.2,-946.6488,-79.09566,-99.67895,0,0
38.75728,854.3893,766.4418,16235.6,-942.0761,-98.6053,-86.56702,0,0
38.75728,838.9557,710.6666,16251.35,-934.1215,-93.11738,-125.2651,0,0
38.80709,913.2959,694.4166,16255.67,-932.4599,-93.71617,-162.2921,0,0
38.80709,955.4026,684.1049,16252.33,-926.7585,-86.79852,-134.2725,0,0
38.8569,989.3683,672.8304,16208.8,-935.7021,-93.53835,-106.3888,0,0
38.8569,1032.557,678.5735,16213.26,-938.1123,-107.1276,-139.3464,0,0
38.9067,1020.697,730.5687,16179.1,-931.0834,-134.2464,-190.5765,0,0
38.9399,1046.512,749.1738,16178.6,-934.5693,-166.9622,-252.9243,0,0
38.9399,1061.263,741.0689,16190.57,-941.6664,-152.9399,-255.5301,0,0
38.98971,1130.684,708.1112,16226.45,-951.512,-165.4945,-284.1462,0,0
38.98971,1132.162,698.308,16210.76,-945.7149,-149.3626,-302.4516,0,0
39.02292,1137.042,700.7225,16212.1,-941.2501,-176.9561,-303.4335,0,0
39.03952,1165.602,693.6564,16244.22,-942.2486,-195.6028,-275.394,0,0
39.07273,1177.921,649.44,16263.26,-942.9976,-189.3675,-206.6742,0,0
39.08933,1240.957,633.3828,16279.99,-939.1234,-154.1412,-154.3523,0,0
39.12254,1197.593,641.1364,16248.39,-927.2881,-156.0827,-155.7137,0,0
39.17235,1219.137,606.1683,16194.27,-922.6793,-161.5623,-161.3489,0,0
39.17235,1254.914,597.2803,16242.67,-928.0446,-185.5333,-67.77757,0,0
39.25536,1246.152,595.0803,16177.81,-923.3076,-187.3347,11.24049,0,0
39.25536,1278.678,604.6435,16141.59,-924.1393,-166.3526,46.25319,0,0
39.30517,1297.355,607.6723,16152.85,-929.2315,-146.2652,28.94831,0,0
39.30517,1318.717,636.7015,16166.09,-937.5724,-130.242,9.587359,0,0
39.33838,1354.308,633.4964,16179.69,-935.0868,-143.4073,-2.423071,0,0
39.33838,1357.545,629.9863,16186.89,-928.749,-145.9362,-8.486822,0,0
39.38772,1381.462,608.5234,16190.27,-923.9081,-133.6719,2.21367,0,0
39.40433,1348.082,646.4769,16178.52,-933.5179,-133.9319,10.22501,0,0
39.43753,1369.545,625.6956,16165.18,-936.4436,-150.1533,18.38399,0,0
39.48729,1380.917,617.5961,16209.37,-934.2443,-97.6901,20.27739,0,0
39.48729,1403.404,621.4386,16255.4,-932.5578,-115.4539,62.24601,0,0
39.52047,1423.304,627.7649,16227.4,-931.2681,-106.9062,45.90971,0,0
39.52047,1424.595,618.2498,16255.78,-934.7163,-104.2651,14.61789,0,0
39.57025,1436.042,627.6438,16249.71,-932.9216,-106.9825,44.79992,0,0
39.57025,1427.577,635.9813,16247.21,-935.9792,-127.3652,47.76536,0,0
39.62002,1474.821,602.4993,16247.44,-938.3137,-143.4995,129.3211,0,0
39.62002,1485.984,592.4651,16236.48,-935.6581,-177.6693,152.6122,0,0
39.65321,1461.775,589.3254,16220.3,-938.0512,-209.2311,94.97564,0,0
39.70299,1429.407,564.8788,16215.67,-948.7357,-224.0502,61.94215,0,0
39.70299,1397.546,588.4219,16258.67,-939.1567,-225.7492,60.0257,0,0
39.75276,1451.473,557.8054,16207.32,-936.243,-228.7658,78.62569,0,0
39.75276,1409.238,573.3029,16193.52,-942.8715,-225.3191,104.8676,0,0
39.80253,1424.219,574.2122,16155.33,-939.066,-213.3432,82.62647,0,0
39.80253,1485.208,568.374,16171.66,-931.7126,-211.2162,78.71842,0,0
39.83572,1515.937,534.1126,16198.68,-934.954,-184.7949,57.01738,0,0
39.88549,1504.617,504.75,16180.64,-928.5749,-177.5078,67.44936,0,0
39.88549,1487.743,458.1489,16190.17,-923.7067,-184.6159,136.2539,0,0
40.01822,1474.435,443.8649,16206.38,-924.4375,-168.3905,144.9093,0,0
40.03481,1488.283,455.4483,16238.75,-925.0208,-121.3243,142.953,0,0
40.068,1489.676,471.2811,16229.12,-925.4885,-113.3475,125.9675,0,0
40.068,1499.273,496.9593,16203.99,-930.2967,-140.8542,107.4991,0,0
40.11814,1514.039,509.0522,16182.55,-929.5533,-151.4242,113.9837,0,0
40.11814,1537.179,509.5959,16206.09,-924.5607,-162.0156,117.4112,0,0
40.16791,1553.401,513.473,16247.39,-929.6195,-159.3042,134.2847,0,0
40.2011,1554.34,484.4358,16260.1,-933.4991,-136.7213,158.0985,0,0
40.2011,1548.027,480.1096,16247.56,-932.0349,-107.5626,200.197,0,0
40.28421,1527.335,443.7458,16227.91,-926.4828,-97.80753,238.2071,0,0
40.30082,1505.673,423.9158,16215.06,-931.1074,-74.40085,255.289,0,0
40.33403,1470.042,450.0125,16208.55,-925.7877,-55.26818,280.1454,0,0
40.33403,1470.338,427.0037,16201.37,-917.2973,-58.27655,271.3144,0,0
40.38386,1457.16,402.9953,16187.05,-924.1235,-73.23423,242.2739,0,0
40.38386,1484.663,383.8034,16191.67,-929.3658,-69.60011,229.9766,0,0
40.43369,1477.892,401.5625,16171.99,-928.9507,-67.51712,213.6519,0,0
40.43369,1506.939,424.2904,16185.83,-928.636,-75.48109,185.7113,0,0
40.4669,1534.546,423.059,16190.94,-928.3986,-81.69476,213.2072,0,0
40.4669,1516.681,461.0797,16235.89,-937.0833,-47.21994,297.2169,0,0
40.51673,1524.985,475.88,16258.06,-939.2849,8.36301,411.5704,0,0
40.54995,1433.671,500.5557,16240.58,-936.5184,-4.761271,520.9352,0,0
40.56637,1425.833,502.8206,16245.96,-938.8179,-72.93941,504.1198,0,0
40.61638,1388.872,492.3523,16228.96,-940.5604,-104.9961,363.3581,0,0
40.61638,1390.626,503.1785,16225.88,-937.4422,-100.4523,281.7762,0,0
40.6496,1352.219,489.2949,16255.63,-926.1795,-118.3,285.0506,0,0
40.74924,1334.105,382.302,16256.16,-922.0017,-156.2969,324.775,0,0
40.74924,1339.314,352.7148,16300.79,-923.2579,-100.515,241.6625,0,0
40.83228,1370.11,423.441,16267.2,-924.2393,-125.1132,193.7655,0,0
40.83228,1369.454,486.5974,16226.99,-929.4382,-79.924,175.1646,0,0
40.96514,1360.218,497.2719,16211.7,-937.853,-87.20438,204.7924,0,0
41.01497,1314.516,516.4804,16206.69,-939.8478,-79.80336,208.9579,0,0
41.01497,1288.63,502.2992,16250.53,-936.923,-85.27092,160.104,0,0
41.06479,1310.089,503.5788,16255.24,-930.2393,-79.80441,125.6046,0,0
41.06479,1307.913,503.4028,16208.93,-938.4189,-75.94672,143.9903,0,0
41.11462,1349.669,472.2044,16243.31,-935.8037,-85.79003,168.1953,0,0
41.14783,1338.543,469.3959,16256.31,-929.3612,-95.85036,185.4351,0,0
41.14783,1332.366,455.0962,16261.76,-933.2975,-90.81893,185.9405,0,0
41.19766,1323.339,437.5685,16242.6,-931.8776,-96.67652,166.9819,0,0
41.19766,1329.87,418.7149,16223.47,-935.2224,-100.6097,149.7797,0,0
41.23088,1334.995,422.1489,16191.12,-933.3449,-99.45964,154.176,0,0
41.24749,1354.534,445.9555,16214.08,-931.905,-121.0078,134.1042,0,0
41.33053,1357.362,456.4946,16259.4,-930.8036,-138.2827,138.5437,0,0
41.33053,1356.248,473.4633,16219.8,-925.5328,-136.7383,131.5451,0,0
41.38035,1349.899,464.2943,16228.28,-917.0818,-122.4548,123.8296,0,0
41.38035,1366.142,446.2118,16236.99,-923.9398,-126.4276,143.2709,0,0
41.41357,1354.223,429.1011,16205.98,-920.3454,-128.586,147.7252,0,0
41.42971,1368.402,408.3405,16162.35,-922.049,-115.5055,113.8238,0,0
41.46293,1392.559,402.5542,16205.54,-923.3726,-101.3149,126.2378,0,0
41.46293,1371.123,417.102,16171.09,-919.9697,-92.67894,179.6162,0,0
41.51271,1358.036,418.374,16166.98,-930.6801,-79.73045,217.7,0,0
41.54591,1356.91,413.9031,16146.25,-934.4452,-73.47897,211.3029,0,0
41.56251,1347.22,429.4121,16128.33,-937.3149,-84.82954,208.2567,0,0
41.6455,1356.472,496.7348,16177.95,-939.493,-79.99302,174.5541,0,0
41.6455,1376.88,488.356,16189.44,-941.1375,-79.11135,218.5496,0,0
41.6953,1383.624,464.1356,16162.82,-946.8018,-138.3091,216.4146,0,0
41.7285,1376.567,418.9846,16144.77,-937.8073,-207.3622,183.6763,0,0
41.7285,1377.794,417.7371,16174.29,-944.1995,-216.5034,132.5727,0,0
41.7783,1353.235,386.9592,16215.79,-949.065,-206.0731,98.54707,0,0
41.7783,1334.472,351.3631,16195.46,-948.3205,-211.7145,75.73344,0,0
41.82809,1340.129,367.5439,16233.08,-947.7155,-199.4733,61.27129,0,0
41.82809,1332.34,383.4378,16250.72,-947.2208,-191.5826,86.18221,0,0
41.86129,1337.534,338.1346,16235.32,-942.3821,-205.0535,136.4592,0,0
41.87789,1341.575,333.5902,16282.16,-938.6617,-198.8538,165.3174,0,0
41.91093,1383.492,329.2337,16252.49,-935.8073,-172.3547,180.7502,0,0
41.96089,1332.45,328.342,16216.38,-929.1917,-174.4189,158.7261,0,0
41.96089,1325.566,360.0035,16235.25,-933.0056,-171.4892,105.5844,0,0
41.99409,1341.427,385.4848,16205.33,-935.9327,-154.7768,89.94816,0,0
42.01068,1393.495,389.5493,16215.68,-924.88,-146.941,86.7197,0,0
42.04388,1343.547,389.3875,16216.95,-929.7365,-123.212,86.06681,0,0
42.06048,1352.977,356.0767,16267.77,-937.8993,-104.2643,100.6725,0,0
42.09362,1372.398,316.293,16258.92,-930.8486,-98.1591,186.1861,0,0
42.09362,1354.002,315.9528,16223.24,-925.4598,-119.3445,221.6509,0,0
42.14348,1380.919,320.3239,16224.71,-925.7871,-104.3181,210.4063,0,0
42.14348,1361.596,342.6823,16219.18,-926.0579,-108.4024,132.4148,0,0
42.17668,1374.493,366.5646,16207.19,-926.2836,-128.4902,59.72979,0,0
42.19327,1359.964,395.9818,16217.98,-930.9045,-140.2859,53.0381,0,0
42.22647,1397.585,379.713,16190.8,-925.5853,-144.8728,82.75632,0,0
42.27627,1395.287,355.0897,16230.98,-925.9608,-130.6361,103.7128,0,0
42.27627,1424.469,303.0785,16277.22,-926.2639,-107.0065,123.442,0,0
42.32607,1397.93,295.5763,16265.97,-930.9409,-101.9968,149.6577,0,0
42.32607,1386.401,309.9755,16229.54,-930.0929,-87.4347,165.2667,0,0
42.34267,1425.17,281.2774,16298.02,-925.0162,-57.28019,228.1093,0,0
42.39246,1410.414,301.617,16291.57,-925.576,-50.42524,259.9508,0,0
42.40906,1407.891,280.7899,16267.64,-930.4493,-54.21669,242.7885,0,0
42.44216,1414.746,290.5196,16261.42,-925.3196,-48.41624,243.8277,0,0
42.49206,1398.858,301.4561,16162.43,-925.8363,-38.59965,223.3637,0,0
42.50866,1409.912,287.8023,16162.14,-930.6745,-47.32433,175.9711,0,0
42.54185,1406.121,278.6088,16132.17,-929.9471,-39.75069,159.8703,0,0
42.59165,1378.79,302.7547,16133.82,-929.3911,-50.44888,155.5835,0,0
42.59165,1335.719,273.7075,16165.21,-928.9677,-136.8637,188.6013,0,0
42.62485,1412.526,219.5034,16217.06,-915.3528,-240.8844,344.5441,0,0
42.67465,1503.388,403.1672,16171.45,-918.257,23.49531,323.9382,0,0
42.69125,1420.904,390.7517,16124.45,-924.9384,-23.08783,380.0904,1,0
42.72445,1379.828,393.3011,16053.21,-925.6322,-48.41919,273.0641,1,0
42.72445,1387.176,343.0576,16109.82,-921.7391,-63.77743,178.1872,1,0
42.75764,1365.115,342.2494,16106.84,-923.2053,-76.99537,124.1442,1,0
42.80744,1378.194,338.3069,16134.68,-915.4768,-100.4479,110.6328,1,0
42.85724,1380.479,317.5724,16172.75,-914.0196,-131.9562,104.3606,1,0
42.85724,1378.924,318.3711,16159.82,-917.366,-165.9586,65.13942,1,0
42.90704,1405.449,323.4666,16172.15,-928.8121,-167.4532,25.14292,1,0
42.94024,1380.297,295.2796,16189.36,-928.7068,-152.3711,17.86627,1,0
42.95683,1389.86,292.6322,16168.19,-928.6198,-154.829,34.53239,1,0
42.99003,1399.393,289.6005,16183.03,-928.5474,-153.547,15.46631,1,0
43.02323,1371.216,306.2164,16192.18,-928.4865,-127.2547,42.46099,1,0
43.03983,1377.377,296.8423,16205.81,-919.5726,-125.362,96.33327,1,0
43.08962,1387.659,272.018,16220.62,-921.6262,-139.9432,98.63663,1,0
43.12282,1401.069,257.5742,16230.77,-914.3469,-141.9029,94.39984,1,0
43.12282,1381.393,282.1243,16225.14,-917.6631,-123.6732,93.7457,1,0
43.17262,1361.911,276.643,16262.84,-915.7891,-104.1561,126.8495,1,0
43.22242,1389.152,262.5762,16300.4,-936.5317,-89.23981,126.1731,1,0
43.22242,1384.524,246.3945,16306.75,-943.5228,-70.12552,150.5917,1,0
43.27222,1428.619,234.1638,16321.34,-939.9695,-61.68638,121.3284,1,0
43.30541,1434.587,244.9191,16306.75,-932.7844,-56.72726,123.0407,1,0
43.30541,1419.107,254.4063,16300.9,-931.6998,-56.6536,162.8669,1,0
43.35521,1444.853,214.1486,16323.92,-921.9961,-21.26388,193.008,1,0
43.40501,1423.454,232.2697,16331.33,-923.4413,-13.46981,198.4949,1,0
43.40501,1428.051,276.2043,16319.04,-924.5566,-39.83003,197.562,1,0
43.43821,1410.449,281.0779,16313.86,-925.4161,-62.35745,199.7556,1,0
43.48801,1404.698,291.4786,16311.93,-930.5086,-67.76494,198.5296,1,0
43.48801,1415.792,303.8701,16287.02,-921.1052,-66.97098,185.0025,1,0
43.5212,1399.877,290.0614,16268.96,-922.7813,-61.1507,172.3428,1,0
43.571,1381.045,292.7836,16253.98,-928.5049,-55.37017,201.6479,1,0
43.6208,1356.703,270.4915,16197.08,-924.0199,-52.12298,193.5038,1,0
43.6208,1356.998,270.088,16184.66,-920.5916,13.43342,139.5399,1,0
43.6706,1314.115,241.0229,16184.16,-922.4115,80.29728,93.82965,1,0
43.7038,1349.048,260.9775,16168.41,-914.9512,95.94917,40.69801,1,0
43.72039,1404.697,265.2381,16207.48,-926.9895,95.08187,6.096583,1,0
43.75359,1421.789,297.3494,16227.5,-922.9094,122.8554,-4.83257,1,0
43.80339,1463.601,328.5509,16282.72,-915.3597,149.2495,5.694882,1,0
43.80339,1436.73,347.9054,16213.01,-918.4647,128.8507,-27.7678,1,0
43.85319,1486.955,367.011,16236.12,-920.8569,106.2074,-34.19818,1,0
43.85319,1501.935,429.0932,16270.44,-922.6968,18.22137,40.71759,1,0
43.93618,1520.923,444.1831,16229.05,-915.2464,-84.39852,123.9935,1,0
43.93618,1575.074,435.459,16236.16,-909.5626,-168.8956,169.1519,1,0
43.98598,1520.884,509.3505,16226.1,-918.5374,-219.3845,195.5437,1,0
44.01918,1513.501,364.9589,16213.99,-929.8505,-280.8452,144.0898,1,0
44.03577,1534.233,359.5516,16167.1,-929.6331,-265.5626,32.05602,1,0
44.06897,1555.406,354.2325,16210.02,-925.0195,-241.715,-1.188262,1,0
44.11877,1537,382.2316,16226.31,-925.9141,-242.4131,17.93274,1,0
44.11877,1510.503,373.6418,16224.4,-931.0243,-241.1565,20.03749,1,0
44.15197,1491.179,328.2005,16266.15,-930.4881,-236.4901,-17.49069,1,0
44.25156,1547.194,314.4767,16271.45,-925.6309,-193.7955,-84.17912,1,0
44.25156,1571.035,346.1185,16314.18,-926.3398,-174.1705,37.98514,1,0
44.28476,1484.894,340.4111,16223.75,-926.878,-193.0403,96.72652,1,0
44.30136,1493.117,311.6595,16168.94,-918.422,-202.577,-54.42535,1,0
44.35116,1549.206,321.83,16180.31,-925.2557,-266.993,-146.3074,1,0
44.35116,1607.473,259.8573,16183.61,-926.0547,-364.4265,-223.9015,1,0
44.38436,1671.71,205.9354,16161.87,-917.8,-360.3628,-219.7771,1,0
44.43416,1631.82,205.9317,16222.93,-929.22,-363.0948,-187.4702,1,0
44.43416,1643.041,222.8249,16209.87,-920.2272,-415.0881,-163.8834,1,0
44.48396,1670.125,209.3958,16167.77,-922.2137,-402.7872,-195.5244,1,0
44.56695,1712.634,219.2963,16130.13,-923.7393,-419.1424,-286.2958,1,0
44.56695,1722.561,194.9564,16158.03,-933.7704,-412.0104,-322.7285,1,0
44.61675,1811.677,104.5641,16117.49,-936.9969,-428.7613,-438.5327,1,0
44.61675,1884.803,126.6438,16119.9,-943.869,-475.6962,-540.0994,1,0
44.64995,1834.768,75.24123,16147.44,-935.7931,-573.6318,-647.4702,1,0
44.66655,1962.003,-17.92377,16205.21,-925.1555,-533.17,-711.4579,1,0
44.69975,2068.505,-56.46243,16204.01,-917.0143,-454.1773,-588.4416,1,0
44.74954,2105.755,-34.28708,16186.47,-910.8037,-375.2625,-437.5426,1,0
44.74954,2071.117,-29.96907,16156.45,-914.9472,-350.3473,-355.4426,1,0
44.78273,2095.685,-33.83079,16106.97,-922.5757,-336.3859,-356.162,1,0
44.83254,2177.768,-55.05725,16121.37,-919.5595,-316.1747,-337.2307,1,0
44.88234,2246.144,-72.94366,16093.79,-912.8309,-274.3378,-183.3986,1,0
44.88234,2258.505,-154.7309,16161.52,-920.9998,-251.7712,-175.0815,1,0
44.91553,2255.708,-120.2224,16109.3,-918.3986,-225.4548,-118.9531,1,0
44.91553,2251.349,-169.6084,16030.71,-920.8503,-204.3555,-122.1692,1,0
44.96533,2287.962,-139.1351,16090.52,-918.3021,-124.7013,-98.24407,1,0
45.01513,2267.293,-147.3283,16129.86,-911.9313,-123.6332,-96.78706,1,0
45.01513,2267.126,-145.2613,16131.26,-915.9415,-111.2661,-115.2931,1,0
45.06493,2328.13,-130.9445,16150.14,-923.4583,-87.21041,-136.8419,1,0
45.09812,2330.636,-71.86271,16125.84,-924.7789,-85.53684,-76.74316,1,0
45.11472,2301.695,-68.40417,16097.35,-930.2148,-133.9398,-113.5105,1,0
45.14791,2453.741,-155.1976,16074.57,-929.9266,20.9521,-138.7684,1,0
45.19771,2499.226,-185.7245,16174.75,-929.6884,413.4066,-63.1972,1,0
45.19771,2406.577,62.83988,16186.04,-920.6277,535.9861,-62.36589,1,0
45.24751,2387.909,69.17546,16145.86,-922.559,424.2981,-22.37106,1,0
45.28071,2390.533,107.1575,16102.92,-924.0394,337.1522,-39.70992,1,0
45.29731,2415.039,138.2682,16085.68,-925.1708,289.5747,-44.94534,1,0
45.33051,2435.235,131.9276,16143.53,-921.6013,240.0638,-70.24272,1,0
45.3803,2473.175,181.133,16131.33,-918.8723,170.961,-40.75927,1,0
45.3803,2535.733,106.5944,16138.65,-907.9306,138.0207,-27.82785,1,0
45.4135,2599.315,105.8872,16098.85,-912.8821,202.3919,7.861473,1,0
45.5131,2563.878,151.7512,16019.74,-912.2642,140.9085,94.69342,1,0
45.5131,2503.725,163.3807,16051.41,-907.3821,134.1738,-33.19108,1,0
45.56289,2533.405,231.8673,16094.69,-912.5391,104.5898,-91.12716,1,0
45.56289,2532.134,234.0669,16092.47,-920.9375,40.70496,-83.72479,1,0
45.61269,2578.108,235.3787,16103.04,-918.5032,-24.35294,-155.0916,1,0
45.61269,2551.622,207.2253,16104.55,-921.0741,-107.3211,-219.5775,1,0
45.64589,2622.635,146.6269,16081.38,-914.1773,-107.9854,-243.199,1,0
45.67908,2687.302,158.8314,16071.5,-908.9102,-71.95388,-162.6518,1,0
45.69568,2704.902,175.7987,16017.52,-913.7651,-72.17736,-150.7211,1,0
45.74548,2786.175,142.0974,16056.2,-921.9263,15.04232,-148.1595,1,0
45.74548,2803.061,204.841,16069.33,-937.0302,83.97717,6.741901,1,0
45.82848,2709.735,279.2502,16062.87,-930.8272,104.1323,40.57054,1,0
45.87871,2635.324,321.4382,16060.25,-921.6205,53.66753,14.5883,1,0
45.87871,2709.659,271.2999,16102.66,-918.9997,56.44392,-48.79991,1,0
45.89531,2774.773,285.7648,16131.81,-916.9967,52.35161,9.998555,1,0
45.9285,2782.858,316.4455,16076.52,-924.3338,-4.342043,46.73324,1,0
45.96172,2792.721,252.0311,16053.08,-929.9423,-68.76828,8.064012,1,0
45.96172,2786.239,245.6986,16002.02,-929.7831,-120.9622,-49.73528,1,0
46.01154,2884.726,200.7808,16045.13,-925.2092,-122.6874,-63.59617,1,0
46.04476,2892.789,221.7068,16040.6,-926.1296,-110.153,29.61528,1,0
46.06137,2967.905,180.0073,15995.15,-931.2551,-100.3165,116.5214,1,0
46.14441,2860.485,257.7398,16034.8,-930.7266,-39.96146,151.6023,1,0
46.14441,2775.348,362.4841,16053.09,-930.3022,-54.62945,129.4944,1,0
46.17762,2735.206,405.6958,16077.13,-925.5287,-102.8922,141.2241,1,0
46.22745,2721.883,377.3419,16076.71,-926.2998,-160.428,117.9295,1,0
46.24406,2715.85,366.2937,16054.24,-931.3148,-175.3638,47.95554,1,0
46.26067,2784.112,292.1073,16054.82,-926.2741,-146.585,33.54197,1,0
46.27728,2808.301,310.4642,16090.77,-922.4092,-162.5214,70.02256,1,0
46.3271,2818.649,265.6024,16051.8,-919.4542,-150.6348,47.90562,1,0
46.3271,2849.415,254.4299,16094.02,-917.2025,-97.54706,63.7929,1,0
46.37693,2824.867,260.2221,16057.63,-919.9255,-55.42421,143.3686,1,0
46.41014,2799.039,310.0118,16071.9,-917.5876,-64.45264,97.32787,1,0
46.42675,2794.469,329.1229,16114.97,-920.2422,-64.71245,33.88608,1,0
46.45997,2901.475,304.7676,16168.9,-926.7126,-31.39362,83.8499,1,0
46.45997,2923.073,294.8358,16152.37,-927.2264,-22.84844,217.4858,1,0
46.5098,2826.078,317.0281,16095.24,-932.0411,-70.95398,232.9239,1,0
46.55962,2745.994,363.7712,16039.29,-926.8443,-108.312,133.4766,1,0
46.59284,2761.042,290.735,15988.81,-922.8578,-63.40749,-11.85476,1,0
46.59284,2857.763,290.1275,16013.53,-924.2392,9.198958,-44.06968,1,0
46.64267,2940.357,301.7796,16001.59,-929.7272,4.249294,-13.1436,1,0
46.67588,2969.861,265.1891,15956.07,-933.9154,-9.104532,39.18023,1,0
46.67588,2940.946,330.2272,16034.49,-932.6681,-16.39064,82.83176,1,0
46.77554,2926.114,367.6858,16031.46,-940.5566,-48.08731,120.0169,1,0
46.77554,2954.25,385.0545,16027,-937.6979,-97.01032,136.9366,1,0
46.85858,2952.097,337.1609,15982.68,-931.05,-111.6483,178.191,1,0
46.85858,2910.165,375.6848,15966.65,-925.9495,-110.53,165.4316,1,0
46.9084,2927.627,360.6512,15928,-922.0464,-161.0566,123.2709,1,0
46.9084,2983.896,383.3111,15938.58,-914.6381,-154.0816,139.5822,1,0
46.95823,2950.118,329.5467,15977.94,-926.7189,-73.75111,185.1258,1,0
46.95823,2923.935,359.2035,16001.58,-927.1048,-66.79169,171.8074,1,0
47.00805,2914.724,325.2716,16000.93,-922.9664,-78.08691,176.0569,1,0
47.0911,2938.486,325.8241,15977.24,-924.2363,-50.98859,130.0619,1,0
47.0911,2857.836,374.9389,16010.19,-929.6437,-62.68805,168.4064,1,0
47.17364,2825.949,403.5179,16007.76,-933.775,-60.30617,143.0156,1,0
47.19027,2916.78,340.9834,16030.32,-932.4886,-50.47052,131.2081,1,0
47.2235,2895.304,340.6735,15958.96,-935.9205,-30.51858,185.7801,1,0
47.2235,2895.356,409.0613,15955.44,-934.0953,12.92054,209.3531,1,0
47.27336,2873.123,435.728,15971.73,-932.6816,-29.05754,213.8543,1,0
47.27336,2884.846,356.1748,15903.45,-936.0184,-16.13224,166.9213,1,0
47.30659,2948.024,333.9691,15900.18,-934.123,121.3374,166.8625,1,0
47.30659,2958.507,412.2288,15948.89,-919.3644,134.7806,237.0445,1,0
47.35644,2802.34,461.9873,15906.56,-921.3796,6.721062,225.9739,1,0
47.35644,2779.287,483.1685,15902.06,-927.3701,-123.0089,21.45556,1,0
47.40629,2929.107,402.6725,16053.94,-923.0956,4.691589,122.4066,1,0
47.48937,2899.634,429.5363,16101.39,-924.265,-23.36874,287.7824,1,0
47.48937,2802.749,490.9124,15963.54,-925.1682,-61.2262,293.5505,1,0
47.57245,2794.065,475.5529,15967.75,-921.4336,-96.52334,171.5763,1,0
47.58907,2901.673,453.5584,16054.13,-923.019,-87.12904,177.5396,1,0
47.6223,2864.315,468.647,16061.42,-928.6735,-117.2139,242.9575,1,0
47.63892,2837.909,383.5997,16007.03,-924.1359,-107.9477,246.8451,1,0
47.67215,2774.534,400.4497,15988.64,-925.099,-76.61394,223.0094,1,0
47.80508,2782.702,373.4238,15985.67,-925.8401,-100.196,140.9038,1,0
47.80508,2840.08,441.3747,16027.75,-917.5469,-19.54389,128.4887,1,0
47.90429,2813.135,486.615,16023.35,-915.6493,-71.14594,157.5534,1,0
47.90429,2799.232,485.5635,16079.75,-918.6522,-73.7795,142.1441,1,0
47.93752,2804.207,487.8557,16070.69,-912.1052,-81.28781,143.6769,1,0
47.95414,2881.225,414.0611,16046.99,-920.4166,-1.950395,190.5797,1,0
47.9873,2866.987,451.6889,16039.83,-913.4963,22.11082,201.4863,1,0
47.9873,2776.268,529.1247,16050.91,-921.5164,-32.48329,208.9041,1,0
48.0371,2765.68,482.8791,16034.93,-914.3683,-89.00397,108.1203,1,0
48.0371,2847.485,440.6521,16096.88,-908.9167,-63.22401,179.2509,1,0
48.07031,2860.245,410.4745,16080.98,-918.0693,-81.95058,257.2114,1,0
48.12012,2811.248,459.3898,15997.76,-911.7934,-113.1106,267.9344,1,0
48.12012,2771.58,411.4407,15960.7,-915.8745,-107.1931,244.3321,1,0
48.15332,2804.507,443.4276,16028.85,-923.4435,-70.13788,139.6803,1,0
48.16993,2875.208,435.7339,16042.24,-920.371,-101.5603,222.7604,1,0
48.21974,2814.029,447.5298,15993.73,-922.4515,-88.40961,313.1238,1,0
48.21974,2758.37,452.0667,15986.57,-924.0413,-132.5601,259.5789,1,0
48.25294,2786.829,411.1573,15994.45,-920.8207,-151.5237,177.6899,1,0
48.25294,2846.385,371.0007,15988.37,-918.356,-135.1026,226.6256,1,0
48.30275,2856.491,351.4548,16026.98,-920.9071,-74.74373,232.9857,1,0
48.30275,2788.83,426.3841,16063.16,-922.8611,-58.71695,241.3546,1,0
48.33596,2776.999,417.2649,16040.91,-919.9219,-50.91652,206.6582,1,0
48.33596,2816.802,387.0177,16076.99,-913.2433,-62.72496,154.862,1,0
48.43558,2822.926,402.7018,16110.02,-908.1484,-38.28062,171.7978,1,0
48.48539,2799.922,431.3581,16127.35,-922.0021,-48.17146,209.1893,1,0
48.48539,2752.453,418.9182,16066.16,-928.1738,-55.24467,207.5926,1,0
48.51859,2746.184,373.9351,16049.14,-924.018,-128.5476,160.9163,1,0
48.5352,2794.731,357.3158,16037.19,-920.8278,-87.04639,173.9991,1,0
48.56841,2778.775,355.8017,16021.39,-918.3848,-129.4565,246.3743,1,0
48.56841,2700.171,385.7903,16068.04,-920.9512,-159.3028,118.873,1,0
48.61821,2830.792,350.0896,16082.63,-918.4844,-133.7687,136.0831,1,0
48.61821,2770.116,361.6598,16030.55,-912.1695,-114.9221,206.7184,1,0
48.66803,2696.048,422.6839,16040.55,-902.9229,-125.6197,188.1959,1,0
48.66803,2720.462,391.8109,16113.56,-909.1772,-121.2524,125.8239,1,0
48.71783,2749.312,422.478,16088.42,-905.1273,-128.0757,137.7589,1,0
48.75104,2809.175,409.3517,16062.42,-902.0582,-109.1138,181.6282,1,0
48.75104,2727.572,461.3216,16025.85,-908.6081,-112.8321,198.3259,1,0
48.80085,2695.155,402.3812,15969.1,-913.6431,-179.607,105.5544,1,0
48.80085,2725.947,355.044,16056.55,-917.5051,-116.1513,16.70191,1,0
48.83405,2799.513,321.1345,16120.15,-924.8907,-119.5886,113.8389,1,0
48.83405,2786.006,317.5209,16095.54,-926.0944,-55.15059,247.6166,1,0
48.88387,2698.106,401.3552,16023.42,-926.994,-138.3015,244.3387,1,0
48.88387,2668.667,409.0311,16019.21,-923.2288,-201.0434,100.6866,1,0
48.93367,2819.201,340.6508,16120.19,-924.7645,-196.2246,60.66151,1,0
48.96688,2870.098,370.3995,16109.82,-925.9247,-125.5752,176.784,1,0
48.98348,2800.276,388.7985,16072.93,-922.3644,-83.63039,227.174,1,0
49.01669,2711.313,388.4902,15963.77,-924.0615,-128.5728,148.1836,1,0
49.01669,2729.768,349.4865,16006.7,-929.7805,-97.02699,56.17792,1,0
49.0665,2808.263,330.7975,16070.68,-934.1349,-72.0754,111.4538,1,0
49.0665,2787.415,343.2117,16038.75,-933.0044,-66.63184,196.8249,1,0
49.11631,2763.67,376.0808,15999.93,-940.9722,-117.1222,172.3707,1,0
49.14951,2806.448,329.2573,16013.52,-938.1644,-104.7969,109.8606,1,0
49.16612,2804.788,312.3639,15994.09,-935.9774,-113.0887,131.0807,1,0
49.19933,2823.393,319.5287,16018.1,-929.8419,-126.8997,175.3665,1,0
49.19933,2826.455,322.9327,16054.27,-933.9928,-86.74509,198.7086,1,0
49.24913,2765.549,354.4603,16093,-932.7172,-71.00471,178.8198,1,0
49.24913,2829.737,307.7378,16107.03,-927.291,-61.52998,160.5008,1,0
49.29895,2813.414,321.9595,16026.78,-923.1317,-55.76279,200.2049,1,0
49.33215,2750.998,378.3727,16034.06,-919.9525,-70.29036,173.462,1,0
49.34875,2798.564,335.123,16068.47,-908.6688,-89.7927,148.2534,1,0
49.38196,2809.473,337.5255,16069.28,-917.7927,-88.95921,157.2379,1,0
49.38196,2812.231,319.4836,16083.14,-920.3628,-104.6819,192.1037,1,0
49.48158,2784.373,311.3067,16061.54,-922.3389,-57.43532,206.2681,1,0
49.48158,2765.267,346.1471,16019.49,-914.9926,-92.25385,279.3286,1,0
49.51479,2735.184,282.0078,15959.68,-918.2504,-145.509,263.2731,1,0
49.53139,2793.142,309.5098,15969.48,-920.7563,-132.7152,206.453,1,0
49.56459,2774.354,304.0802,15984.91,-918.2487,-137.515,237.9328,1,0
49.5978,2723.436,357.6356,16027.88,-911.908,-174.889,206.2311,1,0
49.61441,2711.179,336.5793,16066.34,-915.9404,-126.6176,208.2124,1,0
49.64761,2755.134,259.5526,16055.84,-910.1796,-76.59087,165.0834,1,0
49.64761,2776.655,303.8062,16107.57,-905.7955,-34.75806,261.9985,1,0
49.69742,2752.143,314.5173,16089.41,-911.337,-38.89867,255.429,1,0
49.78044,2671.393,317.2393,16072.08,-906.7383,-82.92988,160.785,1,0
49.79704,2655.228,347.0687,16087.54,-907.6788,-51.59683,132.4272,1,0
49.83025,2741.714,275.7216,16126.98,-908.4255,-48.76201,142.4245,1,0
49.83025,2701.636,246.7181,16081.66,-913.4518,-51.40871,214.4392,1,0
49.88006,2621.239,255.7366,16005.91,-921.7416,-55.74768,181.9938,1,0
49.91326,2681.862,232.906,16049.93,-914.7853,-43.08789,98.44776,1,0
49.91326,2781.618,277.6811,16101.38,-909.4658,-29.06977,175.9309,1,0
49.96307,2695.07,312.0659,16083.04,-909.843,-67.7675,181.267,1,0
49.96307,2715.336,342.8388,16047.89,-910.149,-83.58522,137.7169,0,0
50.01288,2698.798,346.4005,16065.3,-914.83,-121.7253,105.5817,0,0
50.0959,2698.428,362.3559,16085.26,-927.2802,-110.3989,91.95076,0,0
50.1125,2775.793,326.8374,16087.18,-927.9246,-70.64478,144.578,0,0
50.14571,2741.888,358.345,16024.33,-932.8229,-109.478,190.474,0,0
50.16231,2677.151,352.4753,15991.8,-932.1058,-98.99521,167.9586,0,0
50.19552,2737.407,320.2202,16068.97,-931.524,-88.72192,158.7547,0,0
50.19552,2745.879,315.4778,16129.12,-935.4802,-112.9771,158.6572,0,0
50.24532,2753.454,339.567,16120.73,-925.1784,-141.1803,157.2227,0,0
50.24532,2794.667,300.3727,16104.18,-935.0046,-69.31694,191.601,0,0
50.27853,2798.395,295.9028,16096.95,-929.2012,-81.91953,232.8233,0,0
50.29514,2700.306,310.2738,16033.73,-924.7398,-80.23336,219.37,0,0
50.32834,2700.636,360.0816,16044.12,-916.8862,-100.0126,165.7537,0,0
50.37815,2741.977,352.71,16045.47,-919.748,-99.3451,200.0536,0,0
50.37815,2703.836,339.2441,16035.47,-917.5132,-137.0302,202.716,0,0
50.42796,2748.941,286.8056,16042.28,-915.8124,-80.47303,163.9799,0,0
50.46117,2792.314,305.4626,16089.64,-918.955,-39.13533,216.3301,0,0
50.46117,2805.458,298.7455,16066.01,-916.9355,-34.19633,270.9993,0,0
50.51097,2779.921,279.2598,16099.97,-910.968,6.566463,320.1188,0,0
50.54418,2775.795,288.8134,16066.06,-906.4224,46.42076,401.4419,0,0
50.56079,2724.932,261.8602,16050.06,-911.8373,85.77398,479.8299,0,0
50.59399,2670.534,252.4338,16035.63,-911.5706,100.8491,489.8975,0,0
50.6438,2660.084,318.4798,16029.08,-911.3845,128.6153,560.1074,0,0
50.6438,2541.499,377.8967,16008.63,-911.2593,86.84696,478.4937,0,0
50.72682,2549.762,403.2947,16060.67,-911.1802,46.24239,434.8515,0,0
50.77663,2642.92,390.4069,16110.48,-911.1357,48.73948,479.685,0,0
50.77663,2694.488,328.3058,16200.56,-906.6857,168.7147,676.0963,0,0
50.80983,2625.454,360.5077,16187.22,-907.7344,211.9205,889.8129,0,0
50.80983,2529.597,431.6071,16151.25,-904.1273,278.7994,1034.624,0,0
50.87624,2397.91,455.8872,16121.3,-905.8251,312.4401,1028.642,0,0
50.87624,2342.101,481.9397,16135.94,-907.1479,400.0732,1006.732,0,0
50.90945,2322.33,502.657,16164.74,-903.7479,397.0509,1025.107,0,0
50.92606,2271.441,489.3479,16137.86,-910.0326,358.7356,1089.595,0,0
50.95926,2105.961,579.6506,16071.74,-910.4226,251.1602,976.0623,0,0
50.97586,2148.868,581.8127,16031.13,-915.1602,125.7426,816.5793,0,0
50.99247,2104.123,537.5578,16112.07,-914.3525,199.1281,938.3542,0,0
51.04228,2100.878,511.0687,16154.04,-918.1634,338.9882,1032.071,0,0
51.05888,1956.536,592.4291,16128.42,-916.6394,425.5725,1219.344,0,0
51.09209,1832.948,653.1657,16057.75,-919.8972,331.6059,1170.728,0,0
51.1419,1768.673,697.9915,16021.46,-917.9464,275.5209,1029.761,0,0
51.1419,1722.187,730.5599,16025.96,-912.013,181.3022,917.3588,0,0
51.19171,1761.348,701.6348,16097.13,-916.3383,158.9364,799.1714,0,0
51.22491,1694.194,725.4338,16097.31,-915.2144,83.91112,697.3599,0,0
51.24152,1637.662,757.4529,16102.97,-918.7833,82.84792,608.0656,0,0
51.27472,1551.647,761.3817,16113.9,-921.506,-46.59293,485.9162,0,0
51.35773,1577.217,771.5239,16132.18,-928.0061,-113.4013,371.8445,0,0
51.37434,1511.931,793.0809,16192.6,-919.659,-257.8549,246.7527,0,0
51.40754,1666.284,750.2458,16150,-926.5523,-372.8263,123.7255,0,0
51.40754,1668.199,663.7816,16214.74,-922.9432,-260.887,294.1453,0,0
51.45736,1646.382,633.8759,16208.65,-920.1649,-200.6929,313.5131,0,0
51.45736,1635.187,648.4699,16217.03,-922.4613,-147.35,329.8516,0,0
51.49056,1693.021,650.5844,16207.69,-919.7759,-68.11784,322.4687,0,0
51.54037,1684.979,697.4316,16181.49,-913.2831,-20.51145,397.9939,0,0
51.54037,1582.156,661.0027,16100.36,-917.1843,-56.23744,384.743,0,0
51.59018,1578.667,627.3806,16152.41,-915.7407,23.49584,337.5923,0,0
51.59018,1553.704,645.8495,16207.7,-914.6392,78.43989,393.9117,0,0
51.67319,1464.667,666.5004,16219.94,-913.8021,51.12829,391.3757,0,0
51.72301,1523.915,653.3309,16191.43,-908.7377,93.01264,378.9356,0,0
51.72301,1504.85,701.8232,16172.79,-900.4482,73.68052,396.0363,0,0
51.77282,1497.822,760.8645,16187.24,-907.4328,35.22557,296.6684,0,0
51.77282,1524.349,817.8864,16223.67,-921.6627,-28.85216,288.361,0,0
51.80602,1548.759,715.9387,16291.25,-910.3868,59.03678,452.5204,0,0
51.80602,1492.794,742.9022,16238.53,-910.6276,99.39115,686.8374,0,0
51.85583,1420.802,764.3867,16179.13,-906.3916,113.5042,713.4258,0,0
51.85583,1414.211,784.9632,16160.19,-907.5997,127.9946,693.9185,0,0
51.90564,1349.1,810.3518,16165.63,-912.9723,124.7485,718.4003,0,0
51.95545,1274.735,785.1009,16172,-917.0887,70.55297,660.2123,0,0
51.95545,1254.337,775.4391,16153.59,-924.6647,4.34967,534.1821,0,0
51.98866,1227.613,761.1362,16207.09,-921.5783,51.80201,463.1494,0,0
51.98866,1206.02,752.1906,16234.65,-928.0613,81.75083,418.8881,0,0
52.03847,1166.188,795.0154,16214.6,-915.2699,22.89621,384.9748,0,0
52.07167,1215.453,764.3926,16203.57,-918.7707,35.21937,283.4434,0,0
52.07167,1267.4,1009.961,16165.13,-921.4443,257.1033,138.3921,0,0
52.12149,1269.158,872.65,16297.46,-923.4785,220.4449,140.9044,0,0
52.1713,1219.146,957.6683,16284.38,-933.8816,154.8771,165.7886,0,0
52.1713,1194.935,955.7318,16223.15,-937.3752,62.64264,73.10057,0,0
52.22111,1186.061,919.3766,16219.39,-931.1409,3.39514,27.10618,0,0
52.25431,1223.249,922.1438,16246.34,-921.9068,-34.05523,-25.17155,0,0
52.25431,1225.783,1003.627,16241.36,-919.2617,-92.9549,-54.77051,0,0
52.30412,1250.485,971.2852,16233,-926.0995,-88.9436,-103.5482,0,0
52.35393,1290.959,814.2317,16199.92,-922.4574,-134.8324,-179.415,0,0
52.40374,1282.457,871.1635,16194.52,-924.0938,-106.951,-144.0754,0,0
52.43694,1299.598,902.3762,16195.93,-916.4748,-125.9768,-159.9966,0,0
52.43694,1309.723,897.2155,16260.16,-919.5125,-153.4748,-114.3786,0,0
52.48675,1349.884,895.249,16222.79,-912.9774,-142.2717,-109.046,0,0
52.48675,1354.219,899.0693,16222.91,-916.8528,-125.3025,-151.2378,0,0
52.53656,1367.659,864.1188,16221.85,-919.8268,-192.0492,-211.4847,0,0
52.56977,1411.295,839.4574,16162.28,-926.5345,-74.60644,-271.3368,0,0
52.58637,1454.679,779.5349,16233.09,-918.3602,-111.9412,-265.1602,0,0
52.61958,1440.159,814.617,16138.79,-925.3986,-180.4678,-319.5562,0,0
52.70259,1529.79,758.3998,16184.16,-935.2057,-156.4076,-351.2964,0,0
52.7192,1553.837,783.0699,16200.1,-924.9544,-180.621,-315.8209,0,0
52.76901,1545.348,792.0623,16169.1,-925.958,-219.0458,-253.9479,0,0
52.76901,1587.316,760.222,16189.75,-922.2839,-189.3485,-225.5123,0,0
52.78561,1623.522,801.323,16242.14,-910.6063,-152.7265,-152.7188,0,0
52.78561,1670.759,761.9104,16240.05,-910.5532,-120.6,-126.2066,0,0
52.85202,1670.964,762.8597,16158.58,-919.3995,-109.7284,-100.3218,0,0
52.88523,1695.006,768.1183,16146.16,-917.3129,-100.4858,-142.8499,0,0
52.88523,1701.821,740.1009,16146.75,-911.291,-68.69942,-209.1479,0,0
52.93504,1741.985,744.272,16138.45,-911.1322,-57.39566,-237.2863,0,0
52.98485,1766.628,798.5512,16186.51,-911.0308,-74.26401,-230.9032,0,0
52.98485,1803.732,781.3894,16185.66,-910.9724,-106.2912,-221.3948,0,0
53.01806,1828.166,777.1428,16165.07,-915.3772,-128.801,-183.5084,0,0
53.06787,1825.152,757.3143,16195.9,-914.3256,-70.85891,-179.9506,0,0
53.08447,1852.126,726.7072,16171.85,-904.667,-74.97999,-151.4674,0,0
53.10107,1834.456,762.1382,16141.29,-910.5964,-51.83475,-144.4171,0,0
53.11768,1852.472,779.3575,16112.46,-919.5834,-58.82533,-179.8391,0,0
53.15088,1898.91,789.2349,16108.29,-917.5956,-68.93008,-128.8949,0,0
53.20069,1897.242,739.1836,16095.29,-924.9345,-99.39474,-53.22082,0,0
53.20069,1945.19,714.2642,16140.93,-912.8101,-86.9388,-11.14083,0,0
53.2505,1939.101,740.7676,16098.4,-912.3998,-49.12914,-10.38863,0,0
53.30031,1958.158,772.231,16074.87,-912.0971,-58.18872,-69.52215,0,0
53.30031,1966.55,766.4238,16124.65,-911.8766,-81.50838,-50.56295,0,0
53.35012,2017.752,747.6009,16148.46,-916.1504,-84.94754,24.82388,0,0
53.38332,2066.198,737.6879,16143.44,-919.4233,-104.7294,66.80276,0,0
53.38332,2050.421,767.8513,16101.98,-913.0596,-113.1613,45.44932,0,0
53.43314,2035.403,753.2935,16090.3,-912.6265,-118.7022,18.5987,0,0
53.48294,2046.522,732.2219,16154.63,-916.7349,-125.0677,21.40488,0,0
53.48294,2052.184,721.7197,16188.37,-919.8792,-115.9912,34.73637,0,0
53.53275,2042.611,696.0661,16184.21,-926.7091,-114.5049,53.33545,0,0
53.56596,2013.675,713.1484,16205.32,-927.483,-92.25078,93.38249,0,0
53.58256,2039.804,716.3755,16218.04,-928.0506,-48.88931,145.6154,0,0
53.61577,2046.024,757.7232,16226.53,-928.4601,-15.22616,208.457,0,0
53.64898,2070.245,759.4716,16183.03,-924.318,-30.05261,234.9833,0,0
53.66558,2051.721,787.3929,16120.87,-925.5642,-53.4368,165.8172,0,0
53.71539,2095.811,784.3296,16114.38,-917.6404,-76.94135,72.04285,0,0
53.73199,2136.806,776.3855,16140.54,-916.0085,-98.5402,1.766445,0,0
53.73199,2103.354,782.4512,16167.27,-914.7668,-109.2122,-15.17035,0,0
53.7984,2127.115,777.0758,16167.77,-909.395,-111.2179,13.75796,0,0
53.83161,2131.509,792.8662,16109.43,-909.7356,-123.2044,35.35839,0,0
53.86481,2090.073,791.5934,16085.92,-905.5855,-119.8218,68.74432,0,0
53.88142,2086.786,806.0653,16163.37,-906.8682,-83.63617,150.1278,0,0
53.98104,2133.785,749.4764,16165.04,-912.306,-68.95202,184.4371,0,0
53.99764,2123.925,710.6238,16119.76,-916.4799,-86.55219,197.5932,0,0
53.99764,2099.377,712.0286,16120.63,-915.2443,-68.45284,167.6775,0,0
54.06405,2115.73,725.4149,16113.62,-914.3008,-61.28097,127.5845,0,0
54.06405,2136.791,756.7991,16121.63,-909.152,-82.98547,88.119,0,0
54.09683,2119.328,724.3384,16145.55,-914.0887,-122.3146,84.13354,0,0
54.11343,2143.328,727.2619,16177.17,-913.4415,-157.8745,44.73778,0,0
54.14664,2190.173,734.0035,16170.29,-912.9514,-167.4821,27.06907,0,0
54.1964,2174.656,748.0797,16212.61,-912.5823,-146.4037,47.95593,0,0
54.1964,2183.457,713.4532,16172.86,-916.7376,-127.0922,76.15479,0,0
54.24618,2183.182,706.9773,16178.93,-919.9159,-132.1735,102.1297,0,0
54.24618,2190.38,716.527,16200.14,-913.4762,-129.8907,101.694,0,0
54.29597,2181.146,730.5642,16193.01,-912.9816,-96.49973,151.1115,0,0
54.32915,2184.852,707.011,16185.25,-912.6089,-96.70146,193.4466,0,0
54.32915,2178.532,686.855,16155.99,-907.8987,-93.82089,215.5914,0,0
54.36235,2161.244,670.4507,16204.5,-913.172,-54.24445,264.6145,0,0
54.41214,2133.397,680.2142,16132.98,-912.7823,-10.75792,262.1129,0,0
54.42873,2147.396,703.3351,16134.78,-912.4885,12.63844,243.7302,0,0
54.46192,2179.007,694.5244,16096.35,-912.2685,7.868072,240.6717,0,0
54.51171,2186.372,733.2881,16079.26,-907.6741,-6.812118,160.1946,0,0
54.51171,2181.813,733.0515,16087.41,-913.0345,4.201439,159.3997,0,0
54.61128,2165.934,767.2062,16078.29,-917.1411,-4.177761,158.1415,0,0
54.64447,2148.081,727.9108,16088.1,-920.278,-24.05172,138.5349,0,0
54.64447,2124.337,706.6962,16091.31,-927.0964,-23.037,112.4083,0,0
54.69426,2118.301,729.2866,16062.87,-914.5623,-26.79567,91.32365,0,0
54.69426,2153.535,734.402,16044.6,-913.8288,-47.48821,116.7986,0,0
54.74404,2167.113,732.7714,16050.77,-908.8391,-58.3828,149.3332,0,0
54.74404,2196.209,752.5671,16056.79,-913.8956,-50.11531,149.8071,0,0
54.77723,2188.382,807.5547,16023.89,-908.9069,-85.63146,137.9205,0,0
54.81042,2205.486,801.8443,16054.33,-922.8256,-113.3209,116.0475,0,0
54.81042,2207.308,816.1494,16113.23,-929.0317,-124.4309,119.8159,0,0
54.8768,2197.435,828.03,16077.46,-924.8874,-136.951,89.4789,0,0
54.8768,2200.796,816.9879,16102.22,-912.8297,-131.6961,85.44289,0,0
54.92659,2187.706,807.2639,16106.79,-912.4674,-121.4382,114.2901,0,0
54.95978,2167.596,770.8859,16135.79,-916.6295,-117.0749,147.748,0,0
55.00956,2187.586,754.074,16130.23,-910.9518,-110.8717,156.1301,0,0
55.00956,2193.924,760.0401,16128.15,-924.3408,-99.6792,163.8511,0,0
55.05935,2183.153,767.9235,16099.93,-925.7094,-115.9926,158.0355,0,0
55.05935,2133.834,734.0522,16124.88,-926.7342,-126.7434,133.0117,0,0
55.09254,2168.117,709.2804,16127.34,-923.0635,-109.9499,128.7936,0,0
55.14233,2147.794,756.8922,16090.42,-924.67,-113.377,155.4726,0,0
55.14233,2134.455,724.6563,16054.45,-925.8829,-132.8357,161.9877,0,0
55.24185,2182.993,684.5331,16102.38,-922.3613,-132.9544,175.4847,0,0
55.27509,2230.048,722.6552,16172.33,-924.0865,-70.9113,243.8742,0,0
55.32487,2173.943,747.4748,16142.65,-929.8254,-32.60039,258.8667,0,0
55.40786,2201.839,734.3513,16134.26,-929.7624,-61.2925,175.9004,0,0
55.42445,2184.319,715.47,16120.04,-920.8271,-92.74585,82.11599,0,0
55.54062,2208.509,698.87,16175.6,-931.7085,-84.96925,31.78786,0,0
55.55721,2223.594,689.5912,16218,-926.719,-89.82403,5.705408,0,0
55.64019,2230.57,670.425,16239.16,-914.0218,-68.33494,6.266407,0,0
55.64019,2213.603,676.9609,16206.34,-922.0413,-32.54169,11.70004,0,0
55.72317,2197.185,668.81,16155.55,-914.8847,-29.91347,16.40401,0,0
55.72317,2172.369,678.2282,16143.2,-913.8502,-36.33844,-4.67932,0,0
55.85593,2164.45,671.1575,16055.08,-917.5048,16.24148,-82.85963,0,0
55.87253,2206.044,644.8246,16096.36,-911.4467,46.02911,-156.9529,0,0
55.95551,2310.929,820.928,16139.13,-915.6906,35.31963,-206.1635,0,0
56.03848,2332.204,851.3921,16147.49,-914.5178,-10.51137,-193.3106,0,0
56.03848,2324.875,803.5161,16117.29,-909.1997,-44.61615,-153.7756,0,0
56.08827,2346.64,758.931,16132.97,-909.5821,-78.51695,-61.81218,0,0
56.08827,2330.827,740.2452,16102.88,-914.3271,-77.00643,43.46276,0,0
56.12146,2349.443,733.6831,16076.58,-909.1064,-89.9307,100.2301,0,0
56.12146,2346.757,767.4388,16121.93,-913.9919,-82.86079,138.2775,0,0
56.17125,2363.236,744.4685,16120.11,-913.3093,-81.27359,160.2479,0,0
56.18784,2342.298,715.7874,16109.86,-921.6578,-90.26096,153.2521,0,0
56.22103,2339.307,727.1146,16083.23,-923.6077,-110.6498,90.04414,0,0
56.22103,2364.479,741.3511,16119.43,-920.6541,-118.9524,88.64622,0,0
56.27082,2365.75,763.319,16143.83,-922.8162,-127.6803,90.54854,0,0
56.30401,2385.29,759.0288,16196.8,-924.4595,-117.6102,148.706,0,0
56.30401,2393.307,750.1559,16216.15,-921.2711,-99.82494,144.5623,0,0
56.35416,2413.546,745.5526,16227.42,-918.8227,-75.0724,147.0187,0,0
56.35416,2418.741,739.7995,16266.85,-921.3784,-44.49311,114.3754,0,0
56.40394,2453.412,732.0726,16202.57,-918.8972,-52.4521,135.26,0,0
56.40394,2392.053,704.02,16147.67,-921.4279,-49.46152,166.8986,0,0
56.45377,2426.826,654.9304,16195.38,-918.928,-33.9367,209.7507,0,0
56.45377,2382.26,679.5771,16163.1,-921.4447,-35.71236,227.3103,0,0
56.50358,2371.229,718.5173,16150.55,-914.5032,-69.8352,208.5845,0,0
56.50358,2341.6,736.1759,16150.91,-922.4923,-93.1907,183.1859,0,0
56.55339,2331.042,740.8192,16141.22,-919.7382,-107.1385,171.5852,0,0
56.55339,2345.085,772.0441,16160.41,-926.4899,-115.7917,161.1711,0,0
56.56999,2360.209,782.5609,16160.68,-927.2106,-117.3288,139.2357,0,0
56.6364,2382.774,763.9084,16198.53,-932.175,-95.14025,115.1838,0,0
56.6364,2379.971,735.158,16186.41,-931.5158,-81.43091,136.0992,0,0
56.66961,2383.236,734.1972,16171.52,-926.5536,-61.78617,166.7474,0,0
56.66961,2354.591,731.253,16108.01,-918.3101,-50.38363,208.378,0,0
56.71941,2359.192,705.7484,16062.82,-920.8679,-65.25749,192.4108,0,0
56.71941,2370.409,713.9883,16101.56,-918.3961,-57.28475,199.4131,0,0
56.75262,2376.699,711.4849,16052.67,-920.9414,-44.2988,174.1439,0,0
56.75262,2394.715,725.1304,16070.86,-927.322,-28.3336,199.2876,0,0
56.80243,2391.761,715.6558,16059.47,-927.7614,-11.78288,237.2215,0,0
56.81903,2356.148,737.2433,16037.64,-919.2204,1.859293,239.4472,0,0
56.85224,2375.381,736.0336,16062.14,-917.1179,-14.44543,271.6677,0,0
56.85224,2332.431,741.7435,16043.4,-919.9499,-38.67718,212.9642,0,0
56.90204,2349.432,725.0436,16112.32,-917.6906,-46.20461,175.9131,0,0
56.93525,2345.825,700.0881,16043.25,-911.538,-43.41344,186.2782,0,0
56.93525,2355.252,678.8398,16060.34,-902.4184,-47.68167,182.5221,0,0
56.98505,2358.019,682.6326,16084.63,-904.3411,-44.60337,181.8133,0,0
56.98505,2326.877,719.9849,16049.01,-905.8495,-63.32405,180.1187,0,0
57.03487,2331.885,769.6451,16061.76,-898.1726,-111.9837,138.0718,0,0
57.03487,2341.293,787.6222,16100.44,-901.2039,-111.1685,116.7421,0,0
57.06807,2351.831,804.5668,16147.79,-903.5623,-105.714,129.6015,0,0
57.06807,2329.974,820.6885,16175.08,-896.5352,-80.66387,125.6751,0,0
57.13448,2313.277,787.4082,16120.48,-895.6304,-41.7824,148.5051,0,0
57.13448,2297.243,768.4584,16105.24,-903.8444,-33.67053,166.0071,0,0
57.16768,2317.202,770.5029,16141.22,-910.1561,-47.19624,196.2808,0,0
57.16768,2336.972,749.8483,16109.98,-914.9949,-52.05094,208.8449,0,0
57.21749,2333.282,759.5011,16068.35,-918.6943,-62.99245,192.0378,0,0
57.25069,2332.687,751.3492,16042.11,-917.0815,-69.42793,187.1298,0,0
57.2673,2340,720.7231,16025.5,-911.4057,-87.90733,169.7462,0,0
57.3005,2337.843,753.8318,16071.69,-911.4954,-95.07148,183.2894,0,0
57.3005,2332.869,766.976,16087.19,-915.9993,-99.92788,175.3384,1,0
57.35031,2333.505,785.8518,16099.09,-923.8722,-92.7627,177.8149,1,0
57.35031,2331.788,789.1337,16150.29,-921.0127,-90.81575,173.8696,1,0
57.40012,2298.362,772.7182,16118.48,-932.0997,-95.36496,168.0643,1,0
57.40012,2321.604,710.2462,16096.3,-931.6842,-97.40269,148.9406,1,0
57.43332,2307.307,732.3033,16133.61,-931.3269,-91.97694,191.3948,1,0
57.44992,2294.21,707.1376,16142.17,-926.586,-74.48287,219.4125,1,0
57.48313,2336.341,694.6144,16140.88,-927.3643,-43.91496,228.0043,1,0
57.53293,2324.275,711.7364,16120.97,-932.3681,-29.4426,210.3531,1,0
57.53293,2274.064,723.8148,16082.44,-936.1655,-45.8807,166.0104,1,0
57.56614,2243.508,712.0579,16126.11,-930.1697,-62.40126,151.1915,1,0
57.58274,2250.222,730.8195,16111.87,-925.5541,-78.6656,169.2599,1,0
57.66575,2248.889,754.0677,16105.39,-922.0077,-68.10698,161.7816,1,0
57.66575,2310.072,762.9703,16101.55,-910.4267,-55.86934,162.4547,1,0
57.66575,2283.816,771.9473,16064.28,-906.0149,-55.39177,190.4142,1,0
57.71556,2279.295,748.8366,16070.18,-911.533,-49.51682,207.6265,1,0
57.74877,2298.07,756.6059,16112.46,-915.7768,-27.6125,217.679,1,0
57.74877,2273.704,786.8943,16116,-914.6026,-30.04184,214.4752,1,0
57.79857,2283.937,783.3964,16067.73,-913.7135,-26.99771,218.5823,1,0
57.81517,2287.399,770.6595,16066.31,-917.4754,-36.93628,213.6039,1,0
57.86498,2277.911,777.4708,16089.68,-907.0641,-37.12383,214.7024,1,0
57.86498,2270.713,780.4042,16089.87,-912.4124,-37.59618,225.7176,1,0
57.89819,2269.713,806.9525,16104.45,-907.6575,-8.094882,234.0567,1,0
57.94799,2219.173,822.7203,16097.87,-908.4709,14.93283,231.4698,1,0
57.94799,2229.413,801.4003,16169.28,-904.6823,28.8012,251.2707,1,0
57.9978,2190.884,806.0245,16181.69,-906.2401,86.59153,328.3303,1,0
57.9978,2179.348,816.1069,16172.18,-907.4554,144.9286,467.059,1,0
58.04761,2197.358,828.1352,16134.84,-903.973,190.2697,512.0043,1,0
58.08082,2192.514,853.8174,16129.45,-901.3321,208.4053,545.7205,1,0
58.08082,2206.728,871.0687,16096.48,-899.3403,237.8219,513.7454,1,0
58.13062,2193.394,896.2361,16060.2,-902.2798,266.6969,419.125,1,0
58.13062,2142.372,945.1426,16105.66,-908.9865,275.1798,388.1314,1,0
58.18043,2090.3,997.7237,16098.38,-918.5601,228.7354,392.1028,1,0
58.18043,2094.028,1044.152,16086.19,-917.0124,196.0441,387.1255,1,0
58.26344,2036.319,1060.306,16107.93,-915.8159,135.4902,406.8952,1,0
58.26344,2018.093,1056.595,16088.02,-910.4608,41.30235,348.6469,1,0
58.31325,2012.39,1057.656,16073.92,-910.7969,-50.43256,288.4198,1,0
58.34645,2021.8,975.9876,16121.92,-911.0585,-159.4607,239.013,1,0
58.49588,2033.872,946.408,16156.42,-911.2621,-169.3204,181.6667,1,0
58.49588,2053.468,933.5345,16157.23,-924.7145,-205.4473,188.9918,1,0
58.57889,2043.306,976.6986,16102.35,-917.2606,-166.3578,258.2655,1,0
58.57889,1977.133,968.513,16102.45,-924.8367,-217.9684,204.1928,1,0
58.6619,2027.734,949.8453,16081.49,-912.8854,-237.2883,126.6988,1,0
58.6785,2050.177,981.9215,16138.63,-917.0303,-240.7296,117.8534,1,0
58.71171,2073.143,942.0042,16163.48,-911.3341,-255.5761,75.16395,1,0
58.71171,2027.759,1004.377,16217.83,-915.8414,-222.0977,176.1357,1,0
58.81133,1962.263,908.9698,16152.84,-919.288,-285.494,117.6467,1,0
58.94415,1969.024,938.9242,16138.46,-917.4831,-217.4418,102.8051,1,0
58.94415,1879.305,982.8199,16116.32,-920.5248,-282.1257,14.49903,1,0
58.97735,1969.591,943.1276,16145.91,-918.4081,-343.3468,-163.1012,1,0
58.99395,2052.336,829.5668,16205.07,-907.9164,-416.4768,-152.5006,1,0
59.07697,2027.176,766.069,16171.52,-917.6246,-474.491,-167.3656,1,0
59.07697,2176.458,718.8882,16098.09,-920.6198,-377.3744,-108.4082,1,0
59.12677,2166.484,758.5179,16116.16,-914.0369,-289.704,68.64891,1,0
59.12677,2104.397,757.043,16125.6,-917.8613,-321.6718,29.37007,1,0
59.20979,2133.284,756.2074,16135.05,-916.3517,-344.1013,-44.7521,1,0
59.2596,2167.509,750.3077,16140.04,-915.1931,-400.1844,-83.90916,1,0
59.2596,2234.548,721.6964,16159.35,-909.8748,-347.0505,-44.43444,1,0
59.2928,2260.093,727.8141,16138.62,-914.6779,-307.3784,-76.97894,1,0
59.3094,2252.715,709.5318,16127.15,-909.4938,-288.9299,-62.97065,1,0
59.34261,2240.105,701.3963,16123.91,-905.5374,-302.0229,-115.5695,1,0
59.34261,2227.968,749.7748,16144.72,-902.5295,-404.0535,-232.6355,1,0
59.39241,2088.84,884.4974,16104.12,-900.254,-791.6371,-559.1674,1,0
59.39241,2338.035,558.7947,16075.3,-898.543,-974.8977,-857.3012,1,0
59.42562,2479.622,492.8365,16126.49,-901.6979,-759.8471,-686.0646,1,0
59.47543,2513.024,410.9701,16244.33,-904.1379,-593.5302,-479.1586,1,0
59.47543,2568.794,414.5617,16164.79,-910.4547,-528.4067,-364.6087,1,0
59.57504,2567.384,461.3724,16052.86,-910.8615,-465.9031,-271.5282,1,0
59.57504,2548.83,438.091,16027.16,-906.7419,-457.3694,-289.8622,1,0
59.65805,2612.514,356.7257,16037.64,-908.0288,-431.759,-363.297,1,0
59.65805,2695.854,373.9461,16072.46,-909.0206,-360.1904,-291.5523,1,0
59.75767,2674.451,302.6088,16118.07,-909.7836,-335.8658,-216.5808,1,0
59.75767,2684.844,366.3177,16144.13,-910.3695,-275.4884,-173.1257,1,0
59.79087,2780.538,278.4341,16140.75,-910.8183,-158.2886,-99.90979,1,0
59.80748,2747.503,278.4824,16104.87,-911.161,-118.5976,53.79927,1,0
59.84068,2704.663,300.3912,16055.29,-915.853,-77.94727,71.59354,1,0
59.84068,2627.881,307.922,16045.16,-915.0016,-88.14173,-15.25131,1,0
59.89049,2703.693,296.6306,15994.37,-918.771,-94.83616,-71.48065,1,0
59.92369,2722.27,334.0619,16025.56,-917.2076,-38.7056,-59.25384,1,0
59.9403,2747.976,372.1167,15978.72,-920.428,-32.33937,-82.70398,1,0
59.9735,2752.532,369.5401,15991.89,-927.3046,-7.560564,-117.6225,1,0
59.9735,2850.596,375.7166,16034.34,-923.6718,5.811149,-83.68921,1,0
60.02331,2857.217,376.3726,16061.44,-916.4338,-23.06007,33.6237,1,0
60.02331,2868.076,345.085,16012.45,-910.8853,-40.96933,106.2169,1,0
60.07312,2819.059,378.0184,15998.38,-911.075,-0.2858664,134.4445,1,0
60.07312,2799.688,395.7727,15996.65,-911.2264,-49.13179,96.25874,1,0
60.10632,2787.59,433.9724,16040.94,-906.9166,-71.11414,64.94671,1,0
60.10632,2815.466,393.5598,16074.92,-908.0632,-96.27232,113.7721,1,0
60.15613,2796.366,407.1469,16001.23,-913.3842,-90.55186,76.52165,1,0
60.18933,2741.373,446.5275,15916.16,-908.5946,-232.899,-71.94518,1,0
60.20594,2850.706,368.187,15947.75,-909.3684,-233.7523,-251.7489,1,0
60.22255,2950.468,383.7858,16055.29,-905.5373,-235.3883,-123.3359,1,0
60.22255,2892.035,318.3853,16030.17,-907.0513,-219.3479,9.767252,1,0
60.28895,2815.681,348.4164,16013.2,-903.7911,-225.8215,-37.75904,1,0
60.28895,2908.608,281.9341,16010.26,-905.7449,-185.27,-124.3218,1,0
60.33876,2948.164,332.2384,15990.38,-902.8228,-185.5284,-115.9384,1,0
60.33876,2912.45,366.5823,15977.5,-905.036,-280.4553,-170.3134,1,0
60.38857,2893.447,335.4348,15973.34,-911.1749,-368.4353,-344.0742,1,0
60.42177,3080.072,268.6073,16097.71,-902.5795,-254.8174,-322.7588,1,0
60.42177,3130.156,259.907,16124.1,-900.4475,-190.9658,-193.4273,1,0
60.47158,3117.72,322.3016,16083.18,-898.8373,-214.3989,-111.6175,1,0
60.47158,3088.511,303.812,15997.47,-897.6294,-254.2024,-128.439,1,0
60.52139,3121.907,284.3518,15999.54,-905.5933,-213.6684,-140.9813,1,0
60.55459,3141.165,258.6423,16057.72,-911.6972,-186.7766,-144.9586,1,0
60.5712,3150.701,280.2607,15956,-911.9308,-242.1255,-171.1761,1,0
60.5878,3162.785,278.2274,15956.97,-912.1009,-267.8094,-227.9362,1,0
60.5878,3214.499,250.3207,15901.41,-912.2223,-299.8022,-248.4116,1,0
60.65421,3206.744,208.1949,15996.55,-916.7379,-267.8734,-226.1153,1,0
60.65421,3218.877,215.0869,15996.34,-915.7453,-283.4664,-227.9142,1,0
60.6708,3282.812,224.0247,16017.3,-914.9699,-225.1894,-127.4207,1,0
60.68724,3296.566,185.7455,16010.1,-914.3634,-177.7964,-75.97467,1,0
60.73722,3311.795,239.8922,15980.24,-922.7509,-138.2959,-74.11395,1,0
60.73722,3298.253,185.1952,15947.5,-920.2808,-149.2386,-61.47348,1,0
60.78702,3308.179,195.7206,15966.92,-922.7982,-82.72558,-20.10689,1,0
60.78702,3364.896,189.6743,15997.41,-920.2675,-85.28259,6.331385,1,0
60.87004,3406.387,132.1637,15985.34,-922.7414,-95.55972,40.95383,1,0
60.88664,3398.504,143.9323,15956.22,-920.18,-56.04044,85.65462,1,0
60.90324,3358.42,212.0202,15941.81,-922.633,-62.94257,119.9847,1,0
60.90324,3359.181,211.1611,15938.68,-915.627,-94.55363,73.47928,1,0
60.96965,3430.027,176.3344,15922.04,-923.5522,-90.71034,80.70598,1,0
60.96965,3469.103,206.4118,15963.76,-920.7355,-52.79395,127.6937,1,0
61.01946,3374.129,205.2312,15972.52,-922.9954,-52.84266,230.2377,1,0
61.01946,3347.387,186.757,15911.7,-933.569,-98.00868,153.8184,1,0
61.05267,3438.345,140.6751,15957.27,-932.7596,-26.66038,162.425,1,0
61.10247,3457.495,133.3745,15962.33,-932.1008,-9.443099,281.2835,1,0
61.10247,3364.046,181.2492,15908.65,-935.9926,-12.64946,266.6205,1,0
61.18549,3334.193,201.4498,15917.58,-934.4987,-68.0259,150.0717,1,0
61.20208,3367.529,180.4632,15973.32,-924.4559,-66.26747,141.379,1,0
61.23529,3384.935,205.53,15994.95,-912.3243,-45.9594,180.414,1,0
61.23529,3361.318,225.9111,15962.73,-925.2101,-46.93771,219.9133,1,0
61.2851,3321.878,211.633,15923.69,-912.9077,-46.47724,213.4433,1,0
61.2851,3335.792,212.9454,15929.38,-916.7985,-66.7856,152.1509,1,0
61.31831,3340.688,262.7466,15927.2,-910.922,-94.35355,166.4761,1,0
61.33491,3340.894,234.3424,15920.09,-910.8741,-136.271,120.6987,1,0
61.36811,3315.364,218.1353,15950.21,-910.8569,-94.91074,107.6777,1,0
61.41792,3312.298,230.1386,15964.46,-915.2932,-63.00201,133.0698,1,0
61.45113,3330.877,206.1058,15921.08,-918.697,-65.2683,163.1705,1,0
61.46773,3353.808,249.8079,15911.24,-912.4391,-56.30223,128.1291,1,0
61.50094,3354.545,232.2708,15971.4,-912.092,-26.01156,187.3181,1,0
61.51754,3322.79,187.8275,16009.69,-911.8395,4.755519,268.1194,1,0
61.60056,3326.061,241.4228,16015.62,-911.6595,11.1757,301.3152,1,0
61.60056,3308.517,275.7889,15930.31,-915.9658,5.044833,293.8501,1,0
61.63376,3309.422,234.4219,15880.58,-914.8339,-28.116,260.8347,1,0
61.65036,3228.077,271.4305,15920.25,-913.9718,-53.63366,150.7522,1,0
61.73338,3312.158,224.3483,15988.38,-913.318,-103.419,103.2446,1,0
61.76651,3338.802,203.835,16015,-912.825,-45.92851,194.6061,1,0
61.76651,3267.125,223.6532,15979.86,-921.3182,-37.71242,226.1846,1,0
61.86619,3226.69,251.0377,15996.11,-923.3778,-62.80951,141.5756,1,0
61.86619,3297.788,255.3464,16006.26,-924.9384,-90.9165,79.55032,1,0
61.89939,3351.083,227.5767,16008.4,-921.6827,-73.07032,97.55616,1,0
61.89939,3349.634,243.9975,16003.29,-914.7481,-67.44133,110.8766,1,0
61.99901,3360.561,260.9805,15982.68,-918.3073,-71.45707,127.4967,1,0
62.04882,3320.019,261.7378,15985.71,-912.1679,-136.2989,186.4821,1,0
62.04882,3319.933,211.2994,15983.57,-911.9106,-128.1945,201.6041,1,0
62.13183,3298.763,253.6129,15981.9,-925.0196,-94.17366,200.5596,1,0
62.13183,3317.999,208.4256,15967.31,-921.744,-104.926,165.2686,1,0
62.18164,3313.846,207.1295,15941.75,-914.794,-73.22166,181.1169,1,0
62.18164,3318.384,178.5107,15908.96,-909.4789,-71.67789,149.402,1,0
62.26466,3322.922,167.8083,15927.21,-909.8592,32.50557,86.61069,1,0
62.28126,3366.223,272.7606,16021.04,-901.3047,103.6992,174.6535,1,0
62.31446,3305.063,281.0079,15934.34,-899.222,77.47131,232.0191,1,0
62.31446,3256.017,328.1912,15894.63,-906.5288,22.98496,150.2746,1,0
62.36427,3309.42,324.2124,15939.72,-907.712,-49.66703,104.0191,1,0
62.36427,3350.294,266.6795,15932.21,-908.6337,-83.70139,130.7444,1,0
62.41407,3348.244,285.716,15969.73,-913.7832,-79.49963,175.6162,1,0
62.44728,3296.722,306.8411,15956.34,-917.7259,-84.53102,163.9282,1,0
62.44728,3333.737,228.7104,15931.7,-911.8726,-99.94698,166.5705,1,0
62.48049,3303.302,204.3867,15962.75,-916.2581,-68.16823,163.8411,1,0
62.48049,3365.313,191.4071,15989.84,-910.7476,-15.84309,165.3162,1,0
62.54689,3340.652,262.4692,15914.13,-915.3983,-42.62849,247.8324,1,0
62.54689,3299.544,266.9846,15918.31,-918.9553,-51.26478,209.6966,1,0
62.5801,3327.921,306.9461,15947.08,-912.8043,-21.05625,198.0936,1,0
62.62991,3296.439,316.3507,15943.65,-908.0976,-87.46528,206.5645,1,0
62.67971,3304.499,322.2843,15918.9,-908.939,-83.95372,168.3536,1,0
62.67971,3279.671,345.4954,15933.27,-905.1635,-116.0953,207.2148,1,0
62.76272,3246.336,343.1168,15886.71,-893.4297,-147.7686,194.7714,1,0
62.76272,3256.412,263.5556,15913.25,-897.7853,-143.5659,140.31,1,0
62.81253,3273.11,231.4452,15927.01,-896.7227,-118.2845,165.1432,1,0
62.81253,3231.685,285.5948,15958.64,-904.8057,-152.2642,148.7112,1,0
62.89554,3241.122,277.1548,15948.48,-902.1454,-153.4454,123.9854,1,0
62.89554,3296.12,234.1066,15980.58,-900.1271,-113.4573,160.2645,1,0
62.94535,3257.359,246.6406,15950.79,-907.4666,-113.2276,194.4199,1,0
62.94535,3236.631,245.2014,15933.52,-908.6588,-101.9029,165.9383,1,0
63.04496,3236.404,264.0829,15952.45,-909.5724,-161.8755,159.3594,1,0
63.04496,3248.542,281.8593,15961.4,-905.8393,-122.592,117.2233,1,0
63.07816,3383.109,261.0823,15959.35,-916.2819,-89.38945,160.9566,1,0
63.16117,3327.497,270.6585,15927.85,-919.8287,-96.09903,211.8931,1,0
63.17778,3239.406,306.7765,15915.96,-918.0881,-127.5369,140.8262,1,0
63.21098,3272.891,302.2032,16019.93,-916.7357,-128.8146,108.0691,1,0
63.21098,3274.198,227.716,16036.22,-911.2535,-118.3554,155.6794,1,0
63.24419,3274.125,245.0005,15986.45,-915.9167,-114.7251,173.0355,1,0
63.24419,3267.454,261.6082,15929.44,-919.4749,-83.1009,153.6135,1,0
63.3106,3376.496,208.9714,15947.88,-922.1791,-93.54131,167.2849,1,0
63.3106,3310.22,183.201,15966.46,-928.6555,-20.12092,258.8831,1,0
63.3438,3252.78,230.123,15981.76,-924.7124,-10.61413,245.7007,1,0
63.3438,3209.999,298.2413,15945.77,-926.0965,3.670479,247.3268,1,0
63.44341,3192.94,302.6622,15923.79,-922.6954,-57.34076,221.2483,1,0
63.57623,3204.47,342.4987,15938.05,-915.64,-78.3617,183.445,1,0
63.57623,3186.89,342.8956,16005.5,-919.0981,-100.0044,186.3342,1,0
63.62604,3248.972,324.1819,16014.94,-917.3046,-102.9617,177.725,1,0
63.62604,3300.991,282.0274,16040.85,-915.926,-97.97696,217.1081,1,0
63.65924,3280.926,284.0691,15959.69,-914.8687,-122.6523,250.2176,1,0
63.79206,3256.678,243.5093,15906.42,-918.4911,-146.1637,200.6266,1,0
63.80867,3259.196,253.5131,15921.16,-925.6882,-181.1958,185.3261,1,0
63.89168,3287.74,250.1385,15955.8,-922.3121,-205.3105,156.1622,1,0
63.89168,3295.153,216.5852,16020,-919.7119,-149.2901,213.1086,1,0
64.0245,3227.658,229.7931,15991.46,-913.2817,-139.7923,295.6922,1,0
64.0245,3207.103,237.7784,15961.79,-912.7969,-91.44576,235.9742,1,0
64.12411,3201.484,281.6221,15994.46,-916.8654,-145.3013,212.8524,1,0
64.12411,3196.229,274.1604,15970.66,-915.5476,-126.6212,191.5026,1,0
64.20713,3213.413,224.1112,15984.54,-914.5401,-155.7533,182.364,1,0
64.20713,3180.152,264.5395,16000.67,-918.2036,-96.2465,192.8439,1,0
64.25694,3204.717,271.1187,15955.34,-916.5724,-89.21369,192.5625,1,0
64.33995,3252.443,234.0396,15909.57,-915.3224,-106.8655,205.0902,1,0
64.33995,3277.903,234.5202,15854.73,-909.9362,-88.53712,185.2991,1,0
64.38976,3212.03,217.2274,15937.07,-905.8267,-131.6035,157.9812,1,0
64.38976,3276.897,130.9727,15924.84,-911.5662,-102.4855,118.5937,1,0
64.42296,3243.415,164.9312,15904.48,-911.5384,-62.48084,167.5405,1,0
64.43957,3262.107,155.6866,15898.97,-915.9567,-80.14881,177.6489,1,0
64.47277,3172.259,197.5655,15950.28,-910.4746,-95.95448,141.0983,1,0
64.47277,3206.676,156.6194,15949.68,-906.2875,-116.6631,94.10932,1,0
64.52258,3163.332,246.2121,15980.24,-911.9638,-115.8729,68.59016,1,0
64.52258,3160.248,218.4042,16024.61,-911.8842,-195.0039,25.21715,1,0
64.57239,3181.339,232.5999,15991.94,-907.3972,-113.3054,144.4031,1,0
64.57239,3193.186,225.7469,15916.99,-912.8395,-93.67014,208.8464,1,0
64.60559,3186.842,267.046,15976.02,-921.4396,-100.0011,300.1789,1,0
64.6554,3130.021,266.4615,15953.59,-923.5748,-73.02231,277.0139,1,0
64.6554,3173.154,222.7348,15948.61,-920.7556,-74.60677,201.9782,1,0
64.70521,3118.781,284.558,15954.78,-914.1509,-79.22072,156.9321,1,0
64.70521,3201.463,261.9886,15976.13,-904.6642,-102.7562,90.0929,1,0
64.73833,3270.341,185.9382,15966.95,-910.718,-51.81894,154.8914,1,0
64.75501,3230.997,248.5859,15944.38,-919.7931,-61.12961,187.382,1,0
64.78822,3271.737,216.7654,15949.29,-917.8657,-79.43135,180.0994,1,0
64.78822,3255.167,157.0003,15939.77,-920.8129,-65.24167,220.2053,1,0
64.82142,3244.612,169.033,15911.48,-923.0547,-37.55961,235.5726,1,0
64.83803,3243.124,166.2102,15894.35,-924.7519,-15.11725,183.5006,1,0
64.88783,3206.488,156.4421,15951.16,-917.1667,11.57605,248.8627,1,0
64.88783,3127.521,221.133,15969.18,-911.3558,-15.58088,212.3382,1,0
64.92104,3125.998,236.3249,15926.43,-906.9174,-63.95247,161.3173,1,0
64.97085,3284.575,162.6202,15924.78,-921.2646,1.722904,178.2528,0,0
64.97085,3228.578,235.9394,15984.5,-923.3734,-25.44889,221.9761,0,0
65.00405,3235.526,268.7748,15948.16,-916.1071,-53.84649,155.662,0,0
65.02065,3219.755,301.5548,15970.2,-910.5431,-88.09397,174.1955,0,0
65.05386,3245.342,262.2137,15959.32,-906.2957,-90.17948,166.5316,0,0
65.05386,3220.559,237.5454,15950.98,-898.6346,-100.5934,146.3028,0,0
65.10367,3221.523,244.1158,15970.07,-897.239,-138.6873,137.8243,0,0
65.10367,3236.659,220.3085,15944.76,-909.5045,-125.0508,131.1574,0,0
65.15347,3179.527,214.2886,15979.69,-901.1802,-115.3268,139.4585,0,0
65.15347,3180.192,218.578,15978.67,-903.6971,-101.7044,109.0663,0,0
65.20329,3210.704,200.8381,15982.26,-896.7826,-109.5056,98.13468,0,0
65.23648,3216.356,196.1821,15968.33,-900.3866,-118.7395,102.9521,0,0
65.23648,3197.421,192.6894,15968.71,-889.878,-74.76954,107.0678,0,0
65.28629,3207.339,202.2775,15972.3,-895.1742,-95.96601,128.076,0,0
65.28629,3160.67,227.3936,15946.21,-894.832,-128.7889,112.3872,0,0
65.33611,3172.7,225.5637,16030.4,-899.0338,-127.7871,72.2331,0,0
65.33611,3257.335,182.0582,16055.91,-893.4094,-67.38258,155.7884,0,0
65.35271,3221.217,238.5744,15979.96,-889.1359,-76.85419,175.1649,0,0
65.36931,3168.061,287.3441,15931.74,-894.7675,-138.1423,125.1371,0,0
65.41911,3230.492,221.5039,15963.59,-899.1052,-125.4088,122.6223,0,0
65.41911,3293.756,177.7452,15952.53,-902.4404,-106.1621,136.2727,0,0
65.46892,3298.798,184.2321,15879.84,-896.137,-106.9042,163.0956,0,0
65.50212,3222.7,220.3076,15862.05,-900.1929,-107.4423,132.086,0,0
65.51873,3279.639,127.1789,15910.7,-903.3076,-154.6293,119.461,0,0
65.55193,3227.826,154.6859,15941.41,-901.2625,-148.2465,117.6173,0,0
65.55193,3292.278,121.6083,15997.07,-908.5651,-111.3925,117.1055,0,0
65.60174,3289.4,138.5911,16020.76,-909.7138,-15.02034,217.8674,0,0
65.60174,3202.857,179.4512,15998.85,-906.1484,-40.58427,232.8067,0,0
65.63494,3246.333,181.9898,15993.06,-907.8452,15.59143,182.2832,0,0
65.63494,3254.103,169.5784,16009.6,-917.9985,10.98552,257.6306,0,0
65.70135,3253.351,197.8134,16038.76,-912.4473,74.52272,339.4496,0,0
65.70135,3222.814,208.3567,15981.16,-912.611,61.03964,373.9762,0,0
65.71796,3175.085,245.2094,15943.67,-912.72,45.68726,307.7035,0,0
65.71796,3230.623,193.5558,15980.38,-912.7876,95.42621,305.4017,0,0
65.78436,3223.295,186.1506,15996.28,-912.8244,139.5117,432.6973,0,0
65.81757,3228.777,178.3007,15965.18,-917.2695,170.8756,541.2339,0,0
65.83418,3165.399,241.0265,15972.4,-925.0803,167.247,591.699,0,0
65.86738,3128.101,294.4949,15979.03,-926.5884,137.969,589.0377,0,0
65.86738,3107.528,307.5195,16020.65,-923.2695,130.6897,575.6633,0,0
65.88398,3099.798,301.7435,16052.39,-920.6959,153.8632,646.3876,0,0
65.90058,3018.819,336.9893,16016.69,-923.1321,153.513,753.6838,0,0
65.95039,2971.664,342.6443,15983.72,-916.1063,147.3581,802.9213,0,0
65.95039,2888.457,363.3094,15969.55,-915.1473,145.101,817.3392,0,0
66.0002,2863.114,351.1221,16031.83,-918.8367,202.9034,755.5502,0,0
66.0168,2853.296,405.7742,16050.6,-912.7831,266.9678,848.3166,0,0
66.0334,2766.724,421.7579,16085.85,-908.1472,237.1032,881.1748,0,0
66.05,2696.878,423.626,16083.81,-909.0391,212.411,804.9977,0,0
66.08288,2684.269,468.9863,16087.57,-909.7296,192.8704,756.3544,0,0
66.13302,2678.903,460.0451,16066.96,-896.9703,169.032,708.7384,0,0
66.14962,2633.623,503.7365,16087.59,-896.0985,156.6541,706.649,0,0
66.16622,2556.728,523.3953,16053.34,-904.3291,91.33279,648.6134,0,0
66.18282,2537.731,486.9684,16118.96,-906.2141,59.86092,577.539,0,0
66.21602,2549.757,461.9948,16163.41,-916.5288,57.42929,554.5507,0,0
66.21602,2516.764,485.7539,16136.17,-924.4106,47.32508,595.0314,0,0
66.26583,2471.477,531.2797,16081.82,-917.118,43.82915,553.851,0,0
66.29903,2431.23,545.7485,16043.42,-920.3818,-28.82636,450.5272,0,0
66.31564,2462.454,535.3199,16020.63,-918.4279,-53.18222,356.3676,0,0
66.34885,2462.966,532.4653,16061.94,-912.4848,-64.88346,324.8283,0,0
66.39865,2499.727,491.1273,16126.74,-916.7958,-11.21686,349.8753,0,0
66.44846,2459.972,547.8397,16138.48,-920.0858,15.91817,455.2769,0,0
66.44846,2383.836,558.7578,16082.98,-913.7241,3.000756,506.1691,0,0
66.48167,2405.159,536.8221,16058.13,-908.851,37.26419,514.3666,0,0
66.49827,2368.066,541.871,16083.39,-918.4229,97.87249,510.6264,0,0
66.53147,2371.585,567.5872,16104.86,-916.876,120.9013,519.3592,0,0
66.58128,2371.8,579.1733,16128.93,-911.251,188.7766,592.1833,0,0
66.58128,2317.37,614.2742,16158.27,-906.9486,257.3271,754.6235,0,0
66.63109,2248.879,621.8967,16224.8,-908.1002,216.5769,930.7498,0,0
66.63109,2134.285,635.0718,16138,-908.9929,213.0086,962.1545,0,0
66.7141,2095.388,655.8138,16073.59,-909.6848,209.6888,827.6132,0,0
66.7141,2073.489,673.4617,16140.61,-914.652,224.8631,725.3533,0,0
66.76391,2063.479,709.7718,16138.59,-914.0182,229.2525,679.1075,0,0
66.78051,2037.049,672.7947,16103.67,-917.96,243.9464,650.9553,0,0
66.79712,1992.505,698.3542,16062.49,-916.5338,271.4972,639.7826,0,0
66.84692,1940.778,770.652,16085.29,-902.139,240.1608,522.5565,0,0
66.84692,1968.908,799.9362,16128.22,-904.4362,149.9818,413.5883,0,0
66.89673,1970.53,778.5237,16164.31,-901.7826,113.8484,366.8595,0,0
66.89673,1945.14,787.0629,16145.23,-895.3436,105.3379,333.5323,0,0
66.92993,1915.687,787.5274,16147.1,-894.8823,103.5942,317.441,0,0
67.02954,1873.162,842.7673,16158.38,-903.4285,30.04002,308.7378,0,0
67.02954,1853.904,798.0461,16172.41,-901.1244,-37.67581,231.7346,0,0
67.07935,1898.972,755.5798,16197.38,-903.8106,-27.10444,301.1602,0,0
67.07935,1850.219,724.9371,16142.05,-905.8792,-22.27289,375.8748,0,0
67.12916,1796.161,723.38,16109.58,-903.0381,8.32114,354.731,0,0
67.12916,1790.179,771.8065,16167.81,-905.3065,-21.48735,262.1609,0,0
67.21217,1894.08,771.9942,16194.53,-902.6187,-6.09313,263.824,0,0
67.21217,1892.379,778.4684,16222.56,-896.1419,43.02982,365.5795,0,0
67.26198,1885.113,867.3047,16207.21,-895.6411,128.0967,522.6572,0,0
67.26198,1835.9,891.6141,16187.51,-895.2845,116.9581,601.235,0,0
67.29518,1817.793,916.3375,16166.74,-903.9003,69.02258,573.2767,0,0
67.29518,1760.362,926.9474,16152.98,-906.0703,68.36089,583.749,0,0
67.34499,1727.196,973.2849,16200,-907.7309,66.78451,553.2906,0,0
67.3782,1661.684,938.335,16157.19,-904.5662,-28.5463,449.759,0,0
67.3948,1731.036,919.9166,16218.53,-897.7145,-16.80658,417.0975,0,0
67.428,1741.693,885.4258,16266.43,-905.7809,-14.79691,485.0249,0,0
67.428,1694.047,895.2336,16221.94,-898.6624,-1.698866,537.0239,0,0
67.47781,1615.126,868.0567,16207.64,-902.0899,-7.848128,557.3171,0,0
67.52762,1501.325,858.0645,16164.45,-900.2898,-101.2906,396.2613,0,0
67.52762,1562.658,821.3878,16215.55,-907.7845,-109.0373,316.0852,0,0
67.56082,1588.386,824.2,16235.71,-909.0842,-27.62893,346.2063,0,0
67.57742,1540.211,871.6503,16178.96,-910.0688,5.51111,372.8944,0,0
67.61061,1483.154,894.4603,16127.72,-906.3794,-24.70589,307.9723,0,0
67.66044,1523.517,883.9603,16170.56,-903.5516,-58.50137,174.4312,0,0
67.66044,1571.856,898.9542,16224.39,-901.3906,-19.35681,200.2369,0,0
67.71024,1608.417,923.4754,16264.36,-908.6072,110.4286,270.1322,0,0
67.71024,1568.259,951.9243,16250.42,-905.262,75.00186,262.809,0,0
67.74345,1560.265,1045.366,16265.05,-907.1315,6.501183,222.1134,0,0
67.79326,1621.196,957.9478,16256.1,-917.4209,-24.56431,177.2664,0,0
67.79326,1627.268,937.227,16198.11,-916.4081,14.64733,168.0962,0,0
67.84306,1561.387,960.9963,16185.81,-920.0391,-53.33932,102.32,0,0
67.87627,1534.711,940.1345,16186.36,-918.356,-126.2549,-21.07297,0,0
67.92608,1531.443,916.1831,16119.21,-921.4722,-107.5107,-256.4555,0,0
67.92608,1567.125,862.2401,16127.78,-923.8261,35.35849,-494.5473,0,0
67.97589,1573.802,847.5065,16182.1,-921.1613,101.2043,-543.1299,0,0
68.00909,1569.311,888.3109,16223.7,-919.0931,69.97858,-521.3732,0,0
68.0257,1645.991,908.3975,16231.07,-917.4883,-8.069739,-439.8228,0,0
68.0589,1691.564,928.0867,16229.95,-920.6746,-86.60427,-298.3781,0,0
68.0921,1719.851,947.4315,16195.76,-918.6601,-155.3576,-198.7292,0,0
68.0921,1796.868,1173.635,16129.67,-917.1008,-94.61311,-158.2423,0,0
68.15852,1864.49,1176.619,16120.2,-915.8947,-99.11102,-131.3434,0,0
68.19172,1876.025,1132.792,16079.87,-923.825,-114.7935,-93.34438,0,0
68.20833,1868.979,1110.869,16086.89,-925.439,-108.5505,-69.95155,0,0
68.24153,1917.534,1058.167,16161.17,-917.783,-125.429,-22.64708,0,0
68.29134,1915.512,1014.174,16110.6,-911.9114,-143.0896,30.09687,0,0
68.29134,1910.24,940.4144,16087.54,-911.8517,-154.1204,57.23653,0,0
68.34114,1913.592,912.7323,16071.17,-916.2421,-158.9559,68.30436,0,0
68.37435,1916.915,903.7807,16077.69,-915.1666,-183.4241,58.17841,0,0
68.37435,1932.411,863.769,16115,-914.3402,-184.3864,32.12797,0,0
68.42416,1948.35,872.0728,16118.18,-918.1378,-181.2135,63.73888,0,0
68.45736,1920.296,909.588,16108.5,-921.0358,-187.3621,82.92516,0,0
68.45736,1924.006,907.3361,16102.3,-918.8073,-171.2924,85.63044,0,0
68.50717,1926.565,904.5486,16137.54,-912.6598,-121.0932,94.82378,0,0
68.52377,1943.761,854.8273,16155.67,-912.3891,-55.41739,204.7927,0,0
68.52377,1897.917,849.0464,16126.32,-916.6186,-15.44104,316.3385,0,0
68.57358,1871.505,833.7106,16090.6,-910.9899,-2.711757,284.8316,0,0
68.62339,1898.816,843.2122,16108.8,-915.5512,-28.03798,211.1971,0,0
68.62339,1909.599,837.356,16154.93,-910.1789,-51.41456,198.5636,0,0
68.6732,1916.572,870.7045,16192.43,-910.507,-71.85207,168.9854,0,0
68.73962,1901.787,876.3774,16163.41,-910.7672,-84.72596,183.5685,0,0
68.73962,1901.408,892.9677,16150.01,-915.4056,-100.6406,158.2707,0,0
68.77281,1922.036,901.2576,16154.13,-914.5224,-102.5076,129.3709,0,0
68.80602,1916.613,882.1229,16198.25,-918.2761,-89.18671,98.61884,0,0
68.80602,1922.281,896.3173,16250.74,-916.709,-58.17922,127.453,0,0
68.85583,1915.391,893.899,16205.39,-911.0721,-13.15096,180.2393,0,0
68.90563,1922.171,897.5985,16126.23,-906.7639,-17.5903,214.9615,0,0
68.93884,1920.579,911.512,16114.43,-912.3452,-54.0722,154.3546,0,0
68.93884,1914.802,921.0271,16152.01,-916.6222,-92.00835,81.84084,0,0
68.95544,1941.292,870.6555,16174.15,-919.8902,-119.3342,82.91786,0,0
69.03846,1945.904,877.5772,16236.47,-913.5158,-120.4723,99.34598,0,0
69.05506,1934.869,892.8981,16164.34,-913.0678,-123.4418,113.9135,0,0
69.10487,1931.83,916.8267,16193.3,-912.7274,-131.1365,112.3405,0,0
69.12147,1940.467,922.9167,16193.23,-916.9013,-141.3299,95.9193,0,0
69.13808,1949.166,941.9234,16193.1,-915.6592,-156.1889,89.76923,0,0
69.18788,1920.236,936.4365,16137.54,-914.7047,-185.3943,104.789,0,0
69.22109,1911.312,946.5553,16118.32,-909.5416,-218.3244,110.7766,0,0
69.22109,1966.475,902.1357,16113.68,-914.462,-221.6379,125.6187,0,0
69.2875,1950.938,864.8107,16136.82,-922.6597,-201.7289,138.3426,0,0
69.3207,1964.398,869.5638,16160.13,-911.1913,-170.7488,157.4472,0,0
69.40372,1944.645,835.6194,16191.27,-906.8492,-139.4095,186.6573,0,0
69.45352,1923.888,820.8643,16198.41,-899.1111,-138.896,187.2605,0,0
69.45352,1923.465,801.9957,16228.15,-893.2213,-142.6034,186.4614,0,0
69.55314,1937.508,770.0417,16258.52,-902.0524,-133.1968,234.7272,0,0
69.63615,1918.282,789.0615,16291.52,-904.4067,-151.44,303.2841,0,0
69.63615,1911.299,818.2478,16266.65,-901.7949,-175.8577,355.6565,0,0
69.68596,1932.539,829.6573,16242.96,-899.817,-190.5478,327.1271,0,0
69.68596,1918.842,842.9296,16240.18,-911.6218,-187.7916,301,0,0
69.71916,1917.201,840.9737,16229.06,-911.7941,-180.5546,248.8249,0,0
69.71916,1907.072,849.5148,16162.84,-916.3532,-165.4805,190.1403,0,0
69.76897,1911.516,804.0321,16198.62,-910.9668,-143.6171,157.3625,0,0
69.76897,1909.384,780.4341,16239.28,-906.8413,-130.1817,131.761,0,0
69.81878,1942.1,704.9568,16239.27,-903.6912,-198.0094,59.09166,0,0
69.81878,1897.289,779.359,16201.49,-901.2948,-229.0264,57.45252,0,0
69.90179,1926.163,765.5976,16226.83,-899.4805,-206.3125,116.0054,0,0
69.90179,1960.426,720.9106,16194.09,-902.5461,-149.1697,155.1329,0,0
69.9516,1947.778,793.3308,16147.98,-900.4774,-115.9371,115.0345,0,0
69.9516,1907.001,821.1869,16107.25,-903.3437,-137.095,57.57241,0,0
70.0014,1952.243,776.0756,16136.09,-905.5497,-145.5627,59.50683,0,0
70.0014,1940.275,728.3738,16147.22,-907.2443,-147.6155,87.23963,0,0
70.03461,1955.434,700.9504,16101.55,-912.9741,-141.7052,64.02551,0,0
70.08442,1992.438,702.3995,16132.14,-912.9176,-133.8661,33.69828,0,0
70.08442,1967.431,713.7508,16100.29,-908.4314,-142.293,50.88391,0,0
70.11762,1918.276,720.4561,16082.72,-909.4271,-160.1068,52.88226,0,0
70.13422,1960.425,720.252,16148.14,-901.3243,-142.9688,87.27148,0,0
70.16743,1967.142,690.3748,16134.03,-899.5679,-130.4066,118.3985,0,0
70.18404,1964.443,700.9825,16149.89,-907.1053,-121.3775,138.6404,0,0
70.21724,1951.221,720.3939,16164.28,-904.0151,-134.7367,134.4358,0,0
70.21724,1938.841,704.392,16155.36,-906.0883,-132.2466,112.0787,0,0
70.25044,2002.467,696.7534,16174.02,-907.6785,-128.9803,138.7451,0,0
70.26704,2018.898,683.3406,16125.15,-904.4637,-133.7118,89.61047,0,0
70.30025,2030.182,682.1449,16157.61,-902.0087,-125.9982,81.70285,0,0
70.31686,1985.441,664.8153,16158.1,-909.0034,-110.4346,69.37315,0,0
70.35007,1997.622,648.4556,16144.08,-905.4915,-94.15727,125.6889,0,0
70.39986,2015.699,667.2063,16165.52,-898.3746,-82.07632,136.3848,0,0
70.39986,2028.283,658.4995,16174.17,-910.6702,-77.10866,127.912,0,0
70.43307,2035.533,675.3061,16167.46,-906.7809,-69.83763,136.3569,0,0
70.43307,2064.169,676.1467,16207.73,-899.3713,-54.9968,178.785,0,0
70.48288,2034.9,752.2681,16248.43,-898.1462,-90.60824,170.1431,0,0
70.53269,2043.353,735.1812,16267.21,-892.796,-111.582,134.3342,0,0
70.53269,2033.043,752.0095,16241.47,-902.0239,-123.5093,114.6496,0,0
70.5825,2038.311,758.2089,16238.22,-900.2344,-138.1736,126.1919,0,0
70.5825,2063.256,748.5026,16213.43,-894.4439,-157.6686,113.426,0,0
70.6323,2046.718,728.8589,16215.43,-898.8967,-155.6159,95.0945,0,0
70.6489,2074.905,687.2529,16219.09,-889.0248,-139.2896,139.8426,0,0
70.66551,2046.438,676.5637,16237.33,-899.2258,-137.0025,192.6223,0,0
70.71532,2052.217,670.7332,16223.48,-902.6143,-107.8073,203.516,0,0
70.71532,2041.007,679.7073,16212.79,-900.7778,-97.40641,215.0013,0,0
70.76512,2038.977,661.2146,16197.91,-899.3763,-108.8962,193.134,0,0
70.79832,2038.448,651.639,16189.83,-893.8796,-108.8675,175.1487,0,0
70.81493,2020.24,637.8272,16190.3,-894.1224,-104.4484,173.2027,0,0
70.84814,2027.318,656.2452,16217.25,-903.1893,-100.2766,175.2386,0,0
70.89795,2034.909,656.0826,16173.57,-901.2654,-82.731,177.5533,0,0
70.89795,2035.122,668.273,16155.69,-904.2244,-86.00263,156.8162,0,0
70.94775,2054.061,667.7299,16149.84,-902.0525,-91.63058,152.8239,0,0
70.98096,2023.043,687.3434,16187.56,-904.82,-88.79789,150.0318,0,0
70.99756,2003.704,683.5663,16177.66,-906.9318,-85.86028,138.7497,0,0
71.03077,2022.157,665.2092,16157.93,-912.9682,-88.93878,136.5032,0,0
71.06397,1993.065,676.7184,16140.68,-913.1334,-82.48829,143.6718,0,0
71.08057,2000.751,675.614,16126.46,-908.8041,-70.69242,171.8787,0,0
71.11378,1997.805,681.4683,16105.75,-905.4764,-93.04721,171.2608,0,0
71.16359,1996.693,697.0651,16116.65,-902.9241,-127.9222,184.5806,0,0
71.16359,2006.957,703.4656,16160.59,-909.8343,-154.5743,254.5175,0,0
71.21378,2033.658,651.8505,16147.74,-901.8172,-156.5909,280.6818,0,0
71.26361,2011.953,644.5611,16144.6,-900.1152,-134.7605,248.0785,0,0
71.29682,2023.03,618.0484,16130.08,-889.9586,-110.5149,197.7122,0,0
71.29682,2021.516,608.9994,16152.29,-895.5082,-85.86514,180.1263,0,0
71.34664,1990.425,583.4233,16136.09,-895.3439,-80.35071,166.3607,0,0
71.37985,2014.309,600.6332,16201.31,-904.0977,-75.64995,159.7085,0,0
71.39646,2054.747,622.855,16215.71,-906.3646,-60.5011,181.2283,0,0
71.42966,2035.759,634.45,16167.91,-903.6594,-38.21445,161.1217,0,0
71.46288,2032.247,662.2456,16216.61,-901.5853,-30.44952,141.8715,0,0
71.46288,2014.01,663.6021,16193.97,-899.9995,-24.12,126.3679,0,0
71.5293,2023.316,658.004,16196.52,-898.7911,-33.01966,119.5822,0,0
71.5293,2025.994,664.8182,16185.12,-897.8743,-43.30214,124.7444,0,0
71.57912,2024.7,691.0895,16189.67,-892.7513,-75.10534,111.8953,0,0
71.61233,2020.368,682.3449,16177.6,-897.713,-106.411,120.7302,0,0
71.61233,1984.919,681.1548,16179.44,-901.5208,-110.3955,107.6447,0,0
71.66215,1978.902,652.5197,16163.11,-895.5732,-106.7469,108.5425,0,0
71.69536,1977.708,633.9581,16167.26,-895.4639,-107.2356,136.2018,0,0
71.71196,2035.593,655.2781,16201.47,-895.3931,-86.24461,183.7267,0,0
71.76178,2043.301,645.0428,16165.57,-895.3513,-71.56885,184.3107,0,0
71.79499,2025.869,664.951,16143.64,-899.7622,-90.56575,165.0182,1,0
71.79499,2014.711,658.0386,16143.55,-907.5716,-105.3872,173.7611,1,0
71.87801,2023.894,669.3795,16180.11,-904.6708,-94.26639,204.228,1,0
71.92783,2024.259,661.4348,16159.34,-893.5771,-73.55734,199.7462,1,0
71.92783,1983.53,669.7612,16182.24,-898.3934,-66.32761,162.9822,1,0
71.97765,1961.285,663.9387,16174.27,-897.6544,-57.80185,153.1058,1,0
72.01086,1959.888,652.8361,16179.25,-905.957,-65.4718,149.7163,1,0
72.02746,1952.294,651.0104,16183.04,-912.3002,-47.02418,175.9494,1,0
72.06068,1975.417,638.5659,16175.95,-908.2664,-60.13238,190.7357,1,0
72.06068,1959.959,661.2227,16173.84,-905.1605,-77.7029,184.5383,1,0
72.11049,1967.061,647.5545,16156.71,-907.2048,-83.13609,144.8447,1,0
72.16031,1947.101,663.7106,16206.79,-908.7568,-74.00015,133.6057,1,0
72.16031,1949.667,677.1833,16191.87,-918.7915,-79.48703,134.4854,1,0
72.24333,1962.822,705.1866,16193.71,-917.5734,-75.38506,133.8372,1,0
72.25994,1996.233,707.694,16209.47,-907.7443,-64.78126,148.3572,1,0
72.29315,1946.475,691.7869,16179.36,-904.6407,-66.94828,153.6823,1,0
72.29315,1984.923,679.548,16139.69,-893.4008,-61.16166,157.4919,1,0
72.30975,2012.16,663.5036,16124.92,-902.5452,-60.09804,134.929,1,0
72.37617,1985.326,672.28,16090.46,-900.6873,-51.01894,149.2784,1,0
72.37617,1975.87,654.6198,16100.84,-903.7029,-18.09665,225.9193,1,0
72.42599,1968.665,618.9755,16151.04,-901.58,24.42208,310.1927,1,0
72.42599,1990.894,649.4055,16186.19,-895.5278,53.97799,326.1732,1,0
72.47581,1952.518,693.7918,16160.98,-908.6371,76.04353,331.9408,1,0
72.55918,1936.514,702.2292,16129.51,-914.23,71.56602,334.0499,1,0
72.55918,1904.439,697.5259,16209.63,-909.624,71.71897,310.9402,1,0
72.60906,1867.881,728.1969,16255.35,-906.0834,114.2068,350.0188,1,0
72.60906,1823.538,737.1413,16284.62,-903.3679,154.1289,437.7451,1,0
72.6423,1838.683,731.6519,16168.27,-905.7219,163.4861,464.4916,1,0
72.6423,1842.825,758.3364,16181.13,-903.0897,157.7507,460.5759,1,0
72.69213,1859.564,746.4555,16169.92,-901.0771,185.9169,472.8278,1,0
72.74198,1824.964,795.9238,16184.61,-895.1124,193.192,461.1794,1,0
72.74198,1779.926,841.2987,16116.08,-899.4289,164.8147,379.4981,1,0
72.77521,1789.024,860.1819,16110.28,-907.175,103.9683,271.278,1,0
72.79182,1805.19,852.1083,16155.84,-908.666,101.5095,220.0009,1,0
72.87489,1766.889,963.0178,16159.75,-905.3641,65.39654,193.8902,1,0
72.87489,1745.671,1004.155,16138.38,-907.2635,-31.28614,131.4366,1,0
72.90812,1798.494,888.7778,16183.03,-913.1412,-102.9367,127.425,1,0
72.95796,1789.327,873.2127,16197.23,-904.3265,-217.0194,94.76133,1,0
72.95796,1831.299,863.2298,16221.33,-906.4404,-170.0271,109.4566,1,0
73.0078,1800.426,873.0697,16178.74,-903.6232,-178.7549,118.2619,1,0
73.0078,1783.632,859.3047,16163.83,-905.9,-256.738,27.52388,1,0
73.04103,1934.957,768.7986,16231.09,-903.209,-164.3655,34.6913,1,0
73.04103,1934.362,762.6653,16250.33,-896.7209,-97.45145,163.5853,1,0
73.09087,1846.255,807.8558,16189.55,-900.6342,-144.9261,153.2689,1,0
73.19055,1904.057,741.5736,16192.84,-903.6391,-99.86545,25.57702,1,0
73.19055,1874.033,791.7195,16139.93,-892.647,-40.84775,70.85741,1,0
73.24039,1813.393,848.9124,16130.54,-893.1198,-69.88607,38.79853,1,0
73.24039,1828.049,849.33,16187.72,-897.9373,-85.1325,-19.73853,1,0
73.27362,1869.297,808.4993,16246.98,-901.6375,-55.44391,-24.20743,1,0
73.27362,1909.752,850.2948,16264.5,-908.9039,-38.50644,105.2096,1,0
73.32346,1885.252,837.8333,16230.07,-914.4525,-75.68608,111.925,1,0
