Time,Ax,Ay,Az,Gx,Gy,Gz,Breathing,Ground Truth
20.64517,0,0,0,0,0,0,0,0
20.64517,1288,3388,15264,-960,722,414,0,0
20.82797,1032,3148,15672,-976,261,-115,0,0
20.84457,532,2772,15620,-944,396,-830,0,0
20.84457,692,2860,16316,-960,599,-948,0,0
20.84457,544,2468,16044,-992,216,-481,0,0
20.84457,796,2488,16136,-960,1000,-576,0,0
20.84457,884,2772,16472,-928,1239,294,0,0
20.84457,1292,3140,17048,-960,649,-390,0,0
20.84457,1780,3096,17264,-960,-549,-1270,0,0
20.91096,2596,3380,17548,-992,-1326,-3982,0,0
20.91096,3672,2820,17456,-944,-951,-233,0,0
20.91096,1820,2384,16192,-960,185,2283,0,0
20.99394,2312,2736,15528,-960,1439,1605,0,0
20.99394,1404,2540,14756,-992,1110,2754,0,0
21.02714,328,2576,15116,-944,1518,-707,0,0
21.06033,356,2556,15216,-960,659,-2325,0,0
21.07693,1288,3036,15564,-944,137,-1315,0,0
21.12671,-476,3524,15148,-960,-1586,-234,0,0
21.15991,-1236,4828,15208,-960,-3224,-1692,0,0
21.15991,-980,3944,15620,-960,-2732,-2368,0,0
21.2097,484,2872,15864,-992,-555,-3103,0,0
21.24289,1468,2392,14456,-960,-581,-1261,0,0
21.25949,1976,928,14700,-992,430,-3598,0,0
21.29268,1492,1592,15896,-960,432,-7180,0,0
21.30928,2760,320,17556,-976,-687,-9432,0,0
21.34247,6776,2012,18060,-928,-1000,-7393,0,0
21.34247,5272,2364,17992,-944,-947,4126,0,0
21.39227,3240,1940,17700,-960,-873,7483,0,0
21.47525,3416,1908,16888,-976,-1121,7160,0,0
21.47525,1640,2228,16020,-960,-3145,2139,0,0
21.49185,3048,2560,17048,-960,-5428,-4199,0,0
21.52504,5040,736,17064,-960,-8234,-4365,0,0
21.55586,5404,8,15644,-944,-6769,-1498,0,0
21.57483,4068,804,14788,-944,-2141,5036,0,0
21.62462,1104,604,13668,-960,4360,7153,0,0
21.62462,1336,2284,14452,-944,5723,3165,0,0
21.65781,3000,1432,15856,-960,2601,-827,0,0
21.65781,2556,1116,16588,-928,1842,-52,0,0
21.79059,2404,580,16728,-944,2911,7,0,0
21.84038,2980,1448,16144,-944,4596,1810,0,0
21.84038,1660,2120,14744,-960,2369,2041,0,0
21.89017,1156,1896,12928,-944,-516,348,0,0
21.89017,700,1748,12556,-944,-2485,-2303,0,0
21.93996,2956,888,15244,-944,-3350,-3768,0,0
21.93996,4120,-204,16076,-960,1972,3498,0,0
21.98975,1728,2556,15172,-912,92,5614,0,0
22.00635,204,1892,15116,-944,-3748,-341,0,0
22.02294,3624,268,18084,-944,-2438,-6643,0,0
22.05613,6216,1196,18308,-960,-1986,2599,0,0
22.07273,3108,1144,17320,-944,-2960,6884,0,0
22.10592,1904,12,16496,-976,-2618,3276,0,0
22.12252,2568,-152,16144,-960,-680,3796,0,0
22.13911,1748,960,16232,-976,417,1256,0,0
22.13911,1920,1632,16420,-944,-479,203,0,0
22.2055,2048,1024,15528,-960,-1432,35,0,0
22.23869,1184,1188,16564,-960,819,-734,0,0
22.25529,2260,1520,16896,-944,207,-147,0,0
22.27188,2596,312,16168,-944,-253,291,0,0
22.28832,1804,264,16028,-960,749,-582,0,0
22.33827,1584,-264,15732,-960,2892,-3019,0,0
22.33827,2312,2284,16556,-928,2027,-3138,0,0
22.38806,2736,1584,17052,-976,-652,-289,0,0
22.42125,2612,1376,16048,-992,-2711,1220,0,0
22.42125,2336,44,15992,-960,-1566,1718,0,0
22.47104,2040,196,16868,-928,136,886,0,0
22.47104,2516,636,17176,-976,505,715,0,0
22.52083,2924,368,16996,-928,649,1555,0,0
22.52083,2816,416,16520,-928,1486,2777,0,0
22.55403,1704,936,15892,-960,1256,1739,0,0
22.57062,860,1408,16228,-960,856,-1769,0,0
22.60382,2328,288,16596,-976,681,-6790,0,0
22.6536,2508,1164,16888,-960,2388,-4886,0,0
22.6536,2016,1320,16516,-960,2026,-6290,0,0
22.6868,3372,872,15020,-928,2235,-2616,0,0
22.6868,2460,1112,15140,-976,1261,-1715,0,0
22.73659,3452,488,14884,-944,196,294,0,0
22.73659,1728,1004,13840,-960,-790,1874,0,0
22.78638,2116,1048,14240,-928,-1337,732,0,0
22.78638,2940,440,16044,-944,455,-439,0,0
22.83617,4172,1476,16992,-944,-519,1059,0,0
22.86936,3052,1280,16640,-960,-1200,4181,0,0
22.86936,2564,1080,16656,-976,-2028,3641,0,0
22.91916,3424,312,16500,-960,-813,3498,0,0
22.91916,2276,1544,16260,-960,425,2453,0,0
22.96894,2384,1680,16024,-960,-560,1028,0,0
22.96894,1780,1200,15476,-960,-731,-259,0,0
23.01873,2536,1072,16476,-928,-429,-806,0,0
23.05193,2292,1208,16416,-960,-450,4,0,0
23.05193,2320,908,16180,-960,-278,495,0,0
23.10172,2376,972,16092,-960,156,181,0,0
23.10172,2280,1288,15896,-928,152,167,0,0
23.15151,2244,1052,15968,-944,-189,110,0,0
23.15151,2220,784,16036,-992,-164,-88,0,0
23.1847,2312,1068,16200,-976,-17,120,0,0
23.2013,2216,1008,16268,-960,249,341,0,0
23.23449,2168,972,16056,-960,123,353,0,0
23.23449,2344,1144,15968,-992,69,408,0,0
23.28428,2284,912,16132,-944,-30,569,0,0
23.31747,2292,1196,16148,-992,117,572,0,0
23.33407,2416,1140,16372,-944,123,859,0,0
23.36726,2192,1024,16112,-944,61,1098,0,0
23.36726,1904,1068,15552,-944,-237,517,0,0
23.41706,2068,1100,16040,-944,-369,-38,0,0
23.41706,2080,1272,16264,-976,-257,-201,0,0
23.46685,2304,1080,16288,-960,-111,211,0,0
23.46685,2084,1036,16384,-944,-276,587,0,0
23.50004,2108,1088,16344,-960,-451,1043,0,0
23.54983,2076,1012,16192,-960,-517,1221,0,0
23.54983,2088,724,16304,-976,-179,827,0,0
23.59962,1752,1080,16056,-960,-242,993,0,0
23.59962,1792,916,16080,-992,-433,857,0,0
23.64941,1856,948,16416,-960,-220,773,0,0
23.64941,1844,1116,16200,-976,-127,890,0,0
23.6826,1660,1048,16220,-976,-272,852,0,0
23.73239,1724,736,16236,-944,-387,555,0,0
23.73239,1648,864,16272,-960,-481,488,0,0
23.78216,1760,796,16376,-976,-422,590,0,0
23.81536,1456,888,16024,-960,-375,429,0,0
23.81536,1624,676,16168,-944,-262,385,0,0
23.86515,1508,632,16232,-960,-149,264,0,0
23.91494,1664,880,16316,-960,-20,227,0,0
23.91494,1536,824,16116,-960,2,264,0,0
23.94813,1500,924,16072,-960,-67,158,0,0
23.96473,1520,892,16264,-976,-102,200,0,0
23.99792,1756,856,16104,-960,-82,121,0,0
24.04771,1664,820,16164,-928,-24,89,0,0
24.09751,1472,888,16048,-976,6,182,0,0
24.1307,1632,728,16208,-960,-59,262,0,0
24.1307,1288,764,16052,-944,45,225,0,0
24.18048,1548,900,16092,-960,18,197,0,0
24.18048,1580,992,16204,-976,-31,323,0,0
24.23028,1552,804,16168,-992,-34,370,0,0
24.26347,1560,876,16260,-944,34,346,0,0
24.28007,1452,848,16108,-960,-25,195,0,0
24.31326,1524,856,16128,-912,-128,141,0,0
24.31326,1524,912,16276,-912,-111,79,0,0
24.41284,1604,876,16228,-992,-41,208,0,0
24.44604,1416,888,16188,-944,-52,95,0,0
24.46263,1520,812,16152,-944,-60,230,0,0
24.49582,1320,956,16220,-976,-105,56,0,0
24.49582,1528,796,16332,-944,-31,203,0,0
24.54561,1440,916,16216,-992,49,320,0,0
24.54561,1400,944,16180,-960,-83,247,0,0
24.57881,1524,896,16072,-976,-224,262,0,0
24.5954,1564,816,16076,-960,-86,283,0,0
24.6286,1412,940,16220,-1008,-108,85,0,0
24.71158,1648,900,16252,-928,-123,96,0,0
24.72818,1436,868,16248,-960,-79,175,0,0
24.76138,1436,936,16260,-944,-54,258,0,0
24.76138,1480,1048,16124,-944,-69,270,0,0
24.81116,1632,816,16272,-976,-200,476,0,0
24.81116,1392,972,16160,-944,-36,20,0,0
24.86095,1420,944,16272,-960,-20,87,0,0
24.86095,1520,784,16188,-960,-82,290,0,0
24.89415,1304,1000,16288,-928,-113,446,0,0
24.94394,1548,884,16128,-960,-203,526,0,0
24.94394,1540,840,16000,-976,-224,650,0,0
25.02692,1312,996,15956,-960,-168,339,0,0
25.07671,1152,960,16256,-944,-173,93,0,0
25.07671,1432,848,16404,-944,-174,206,0,0
25.1265,1236,848,16248,-944,44,273,0,0
25.1265,1464,616,16304,-992,276,227,0,0
25.17629,1436,532,16112,-960,174,54,0,0
25.17629,1284,876,16388,-960,82,-118,0,0
25.20948,1236,956,16332,-976,200,-305,0,0
25.25927,1240,992,16152,-928,91,-399,0,0
25.25927,1348,1000,16068,-960,-60,-416,0,0
25.29246,1456,1028,16296,-976,-417,-223,0,0
25.30906,1616,1080,16120,-912,-396,-446,0,0
25.35885,1964,1008,16216,-960,-318,-340,0,0
25.39205,1944,1076,16020,-928,-515,284,0,0
25.40864,1580,884,16292,-992,-256,583,0,0
25.44184,1772,712,16408,-1008,-555,1165,0,0
25.49162,1588,628,16120,-944,-633,827,0,0
25.49162,1436,368,16024,-944,-650,562,0,0
25.52465,1156,676,16232,-944,-215,537,0,0
25.57461,1256,976,16292,-976,-706,642,0,0
25.59121,1312,904,16300,-992,-544,833,0,0
25.6244,1628,660,16232,-976,-156,989,0,0
25.65759,1444,740,16292,-944,-471,503,0,0
25.67419,952,420,16140,-944,-280,-224,0,0
25.70739,1248,304,16464,-928,-262,-77,0,0
25.75718,1232,120,16364,-976,-120,274,0,0
25.75718,1236,240,16176,-928,26,167,0,0
25.80696,1196,296,16348,-928,141,377,0,0
25.84016,1168,480,16272,-912,-147,348,0,0
25.85675,1232,640,16108,-976,-207,244,0,0
25.88995,1272,604,16260,-960,-272,174,0,0
25.93974,1292,660,16220,-928,-14,195,0,0
25.93974,1240,648,16172,-944,47,-114,0,0
25.98952,1296,832,16224,-992,140,-269,0,0
26.00612,1472,716,16252,-944,156,10,0,0
26.03932,1400,496,16068,-960,76,383,0,0
26.07251,1144,692,15964,-960,162,315,0,0
26.1223,1316,668,16224,-928,205,328,0,0
26.1223,1436,672,16424,-944,254,817,0,0
26.17209,1420,632,16176,-960,231,1135,0,0
26.18868,932,900,16192,-992,286,926,0,0
26.20528,840,904,16176,-960,293,214,0,0
26.25507,1152,632,16352,-928,241,153,0,0
26.28827,988,692,16276,-960,-36,241,0,0
26.30486,1108,720,16436,-944,-257,277,0,0
26.33806,988,876,16408,-992,-579,100,0,0
26.38784,1276,1128,16020,-960,87,385,0,0
26.38784,876,440,16168,-944,199,629,0,0
26.43764,1204,272,16216,-960,393,143,0,0
26.43764,1272,604,16784,-928,409,568,0,0
26.48743,980,816,16328,-960,263,589,0,0
26.52062,944,920,16172,-960,603,211,0,0
26.5704,1088,988,16248,-960,835,-68,0,0
26.5704,1316,588,16368,-944,410,-115,0,0
26.6036,956,612,16296,-928,-302,190,0,0
26.65339,664,844,16436,-960,566,499,0,0
26.70318,1148,1424,16216,-944,-8,1098,0,0
26.70318,672,1192,15744,-976,-202,-22,0,0
26.75337,968,1368,15944,-944,3,-1080,0,0
26.75337,1160,900,16300,-944,40,-994,0,0
26.78656,1248,740,16264,-928,-1,-114,0,0
26.83638,1200,960,16332,-960,73,183,0,0
26.83638,1460,1208,16356,-960,284,176,0,0
26.86958,1284,1228,16180,-944,189,-45,0,0
26.91938,1236,1240,16272,-976,107,-254,0,0
26.93598,1296,968,16376,-928,250,-416,0,0
27.01899,1156,1080,16412,-912,314,-119,0,0
27.01899,948,1380,16164,-944,182,-16,0,0
27.05219,1256,1144,16372,-944,44,330,0,0
27.05219,1284,1096,16236,-928,-290,490,0,0
27.102,1232,1080,16180,-928,-496,345,0,0
27.1518,1172,924,16188,-944,-476,255,0,0
27.1518,1108,1048,16120,-960,-490,240,0,0
27.2016,1268,840,16288,-944,-378,133,0,0
27.2348,1064,968,16108,-928,-310,-20,0,0
27.2348,1228,816,16204,-976,-337,10,0,0
27.3178,1064,948,16180,-944,-221,25,0,0
27.46721,1132,988,16076,-944,-61,49,0,0
27.46721,1112,808,16264,-960,-27,7,0,0
27.55021,1048,868,16252,-992,-15,-23,0,0
27.55021,1140,864,16244,-944,53,-11,0,0
27.69962,1408,916,16260,-912,-118,76,0,0
27.69962,1264,984,16428,-960,-240,268,0,0
27.73282,1392,1296,16300,-928,-299,531,0,0
27.73282,1396,1276,16040,-976,-343,539,0,0
27.78262,1160,1208,15988,-928,-317,182,0,0
27.81582,1232,1016,16416,-944,-36,-177,0,0
27.83242,1288,804,16392,-960,-7,-138,0,0
27.86563,1168,920,16308,-960,-107,60,0,0
27.88222,1176,820,16384,-944,-159,337,0,0
27.89882,1216,708,16172,-928,-194,417,0,0
27.91543,1044,772,16132,-928,-174,281,0,0
27.96523,1236,876,16444,-928,-137,-29,0,0
27.96523,1260,664,16208,-960,-97,175,0,0
27.99843,1360,792,16284,-960,34,449,0,0
28.04823,1148,1168,16020,-928,166,341,0,0
28.04823,1112,1200,16048,-976,109,156,0,0
28.09803,1116,1060,16124,-960,-115,48,0,0
28.09803,1264,1068,16348,-960,-73,60,0,0
28.13123,1240,916,16356,-944,9,216,0,0
28.14783,1116,856,16292,-960,-63,93,0,0
28.18103,1220,896,16136,-992,44,-16,0,0
28.18103,1320,968,16404,-960,-15,293,0,0
28.23083,996,1008,16128,-944,-107,196,0,0
28.23083,1192,988,16264,-944,-109,106,0,0
28.28064,1316,840,16140,-960,-133,232,0,0
28.28064,1268,960,16348,-960,-139,213,0,0
28.31384,1280,788,16268,-944,19,234,0,0
28.36364,1152,1004,16092,-960,27,1,0,0
28.36364,1096,932,16244,-944,82,-95,0,0
28.41344,1232,960,16224,-944,140,188,0,0
28.41344,1244,1040,16156,-928,8,169,0,0
28.44664,1148,1104,16012,-944,-41,97,0,0
28.44664,1364,1000,16344,-976,-8,282,0,0
28.49644,1088,1000,16140,-960,-37,291,0,0
28.49644,1380,920,16156,-944,-177,4,0,0
28.59604,1236,1060,16280,-992,-60,137,0,0
28.59604,1216,1052,16136,-960,-43,244,0,0
28.64585,1136,976,16072,-960,-75,238,0,0
28.67905,1252,888,16220,-928,-113,193,0,0
28.67905,1200,996,16280,-944,-115,127,0,0
28.71225,1208,908,16144,-944,-26,202,0,0
28.71225,1048,1044,16124,-928,-24,95,0,0
28.71225,1260,928,16248,-976,-70,115,0,0
28.71225,1168,1068,16100,-944,33,-11,0,0
28.71225,1256,964,16312,-944,15,121,0,0
28.71225,1372,1016,16204,-976,-81,285,0,0
28.71225,1192,976,16236,-944,-143,188,0,0
28.71225,1256,916,16344,-928,35,154,0,0
28.71225,1252,1048,16184,-960,19,114,0,0
28.71225,1192,1144,16072,-928,-115,9,0,0
28.99447,1192,1048,16164,-944,-138,87,1,0
29.06087,1232,952,16160,-928,-79,190,1,0
29.06087,1228,1080,16148,-944,-89,208,1,0
29.16047,1224,984,16184,-912,0,145,1,0
29.16047,1176,1016,16196,-928,-56,180,1,0
29.21027,1152,984,16272,-960,-1,230,1,0
29.21027,1136,1000,16276,-960,-34,310,1,0
29.24348,1248,1068,16232,-928,-63,300,1,0
29.29328,1224,992,16020,-912,-92,190,1,0
29.29328,1284,1084,16296,-960,-107,165,1,0
29.34308,1200,964,16284,-944,-71,155,1,0
29.34308,1172,1136,16072,-928,-124,110,1,0
29.37629,1312,904,16036,-944,-111,100,1,0
29.39238,1300,960,16452,-960,-25,110,1,0
29.42558,1188,936,16312,-960,-6,88,1,0
29.42558,1132,1024,16156,-912,-82,86,1,0
29.50847,1220,876,16264,-976,-119,168,1,0
29.52506,1244,1068,16292,-960,-7,-15,1,0
29.55823,1380,1136,16300,-944,-72,175,1,0
29.60798,1080,1028,16148,-976,-83,293,1,0
29.60798,1328,896,16248,-928,86,276,1,0
29.70748,1164,1152,16052,-960,-19,148,1,0
29.74065,1064,1136,16236,-912,-159,-60,1,0
29.74065,1268,1144,16252,-944,-153,-7,1,0
29.82356,1228,1004,16172,-960,-161,226,1,0
29.84015,1120,948,16364,-944,-135,199,1,0
29.92307,1348,1328,16312,-976,-248,235,1,0
29.92307,1280,1140,16184,-928,-313,403,1,0
29.97323,1216,864,16124,-960,-30,237,1,0
29.97323,1196,964,16320,-944,-193,104,1,0
30.0064,1248,740,16116,-944,-33,45,1,0
30.0064,1212,1152,16188,-912,-191,199,1,0
30.05629,1032,816,16148,-928,-21,188,1,0
30.10611,1196,936,16168,-928,-239,246,1,0
30.10611,1260,1056,16220,-944,-250,229,1,0
30.15593,1280,996,16312,-928,-295,248,1,0
30.15593,1228,908,16036,-928,-105,284,1,0
30.23897,1236,1200,16196,-960,-222,183,1,0
30.23897,1280,1016,16380,-960,-264,254,1,0
30.27219,1196,848,16200,-928,-158,359,1,0
30.27219,1092,904,16108,-912,-242,258,1,0
30.32201,1232,840,16260,-928,-84,354,1,0
30.37184,1056,968,16308,-976,-137,384,1,0
30.37184,928,1000,16152,-944,-305,143,1,0
30.42166,1260,964,16164,-944,-182,-90,1,0
30.42166,1172,828,16324,-992,-297,224,1,0
30.45487,1108,864,16332,-944,-244,-6,1,0
30.47148,1328,720,16308,-928,-41,58,1,0
30.5047,1208,744,16156,-944,-133,301,1,0
30.5047,936,936,16060,-928,-293,115,1,0
30.55452,1312,816,16208,-960,-72,-105,1,0
30.55452,1168,948,16220,-944,-344,1,1,0
30.60434,1132,676,16308,-928,-258,-138,1,0
30.63756,1328,964,16164,-928,-330,-107,1,0
30.63756,1084,988,15968,-960,-484,5,1,0
30.68738,1184,700,16040,-960,-532,-637,1,0
30.68738,1516,660,16204,-896,-391,-213,1,0
30.7372,1476,512,16336,-912,-183,-139,1,0
30.7372,1440,728,16276,-976,-211,132,1,0
30.77042,1368,780,16180,-928,-146,206,1,0
30.78703,1376,648,16444,-928,-48,36,1,0
30.86956,1704,740,16452,-944,330,753,1,0
30.86956,1304,860,16188,-928,179,1454,1,0
30.91938,812,752,15936,-928,81,693,1,0
30.95255,1196,628,16092,-944,6,-101,1,0
30.96915,1372,668,16204,-960,-8,-144,1,0
31.00235,1304,692,16416,-944,-62,129,1,0
31.00235,1204,680,16236,-976,-43,152,1,0
31.05214,1184,872,16112,-928,-44,272,1,0
31.05214,996,724,16052,-960,-85,-103,1,0
31.13513,1208,744,16436,-960,-239,-156,1,0
31.15173,1620,508,16276,-928,26,-95,1,0
31.18493,1308,844,16292,-928,-108,488,1,0
31.18493,844,932,15868,-944,-332,2,1,0
31.23472,1304,708,16416,-960,-73,-238,1,0
31.26792,1248,708,16356,-928,-151,-148,1,0
31.28452,1420,676,16452,-944,-57,165,1,0
31.31771,1404,700,16264,-944,-176,288,1,0
31.31771,1288,780,16108,-944,-216,49,1,0
31.36751,1480,636,16424,-944,-64,193,1,0
31.36751,1436,604,16264,-960,-10,429,1,0
31.4007,952,720,15928,-928,-366,211,1,0
31.4173,1072,832,16068,-944,-457,-663,1,0
31.4505,1468,676,16308,-944,-466,-806,1,0
31.4505,1544,528,16164,-944,-420,-333,1,0
31.50029,1504,580,16124,-960,-278,-102,1,0
31.53349,1476,620,16092,-928,-312,-267,1,0
31.55009,1552,560,16240,-928,-237,-239,1,0
31.58329,1768,492,16172,-960,-45,88,1,0
31.58329,1472,712,16204,-928,-207,177,1,0
31.63308,1400,632,16060,-960,-242,-167,1,0
31.66628,1480,652,16368,-912,-147,-176,1,0
31.68288,1912,688,16604,-960,133,631,1,0
31.71607,1344,584,16352,-944,-85,1298,1,0
31.73267,1536,612,16368,-944,269,1233,1,0
31.76587,1556,620,16008,-896,79,1431,1,0
31.81566,1040,736,15824,-960,150,886,1,0
31.81566,972,832,16140,-928,-277,18,1,0
31.86546,1220,500,16164,-912,-47,-369,1,0
31.89865,1404,560,16504,-960,-45,-203,1,0
31.91525,1500,664,16504,-960,-42,322,1,0
31.94883,1164,532,16092,-912,-309,506,1,0
31.98203,1348,736,16444,-944,-42,640,1,0
31.99863,1256,380,16212,-944,-73,1242,1,0
32.03187,980,844,16112,-944,-201,959,1,0
32.08169,892,936,16268,-976,-310,687,1,0
32.08169,1028,740,16152,-960,-250,577,1,0
32.1149,1008,712,16228,-960,-229,476,1,0
32.16471,1088,436,16164,-928,-177,221,1,0
32.21452,1108,472,16096,-928,-51,167,1,0
32.21452,1084,732,16244,-912,-62,65,1,0
32.26433,1060,688,16292,-960,-126,152,1,0
32.26433,888,688,16184,-944,-150,5,1,0
32.31415,1032,500,16248,-944,-97,-123,1,0
32.34736,940,768,16292,-944,-135,270,1,0
32.36396,936,468,16192,-944,-282,-26,1,0
32.39717,1104,480,16540,-928,-166,-144,1,0
32.4802,1332,592,16200,-912,-92,204,1,0
32.53002,996,552,16144,-928,-77,357,1,0
32.61304,1000,620,16284,-960,-173,176,1,0
32.61304,1040,636,16344,-976,-47,152,1,0
32.66285,1136,500,16280,-944,67,380,1,0
32.66285,1120,532,16260,-928,5,573,1,0
32.76248,940,672,16232,-960,-39,620,1,0
32.76248,1120,604,15936,-928,-74,406,1,0
32.8455,964,656,16344,-928,-109,530,1,0
32.8455,804,632,16168,-944,9,43,1,0
32.89531,932,656,16168,-928,-197,33,1,0
32.89531,972,340,16368,-944,-98,210,1,0
32.92852,884,540,16284,-960,-206,188,1,0
32.94513,712,820,16064,-944,-328,93,1,0
32.97834,884,688,16260,-928,-393,-151,1,0
33.02814,1388,256,16372,-944,-160,-16,1,0
33.02814,1248,720,16464,-944,-142,496,1,0
33.07796,836,584,16248,-928,-227,558,1,0
33.07796,724,536,16256,-928,-110,34,1,0
33.16098,1132,536,16256,-960,-144,-24,1,0
33.26061,908,656,16224,-912,-144,226,1,0
33.26061,936,544,16300,-944,-103,89,1,0
33.29382,996,492,16144,-928,-265,-350,1,0
33.31042,1044,592,16240,-944,-161,-24,1,0
33.37684,832,364,16336,-976,-103,-62,1,0
33.39345,848,588,16424,-960,-193,-110,1,0
33.44326,1260,360,16416,-928,-21,59,1,0
33.44326,1440,336,16296,-944,-55,339,1,0
33.52628,920,680,15952,-944,-76,480,1,0
33.52628,508,848,15920,-960,-342,-225,1,0
33.55949,1036,412,16128,-960,-187,-899,1,0
33.65912,1676,412,16656,-944,-20,-58,1,0
33.65912,1128,472,16448,-944,-180,553,1,0
33.69233,900,340,16048,-944,-345,351,1,0
33.70894,948,520,16064,-976,-141,151,1,0
33.79196,1148,356,16264,-896,-242,-33,1,0
33.80856,1304,472,16388,-928,-19,113,1,0
33.84177,956,608,16160,-912,-329,458,1,0
33.84177,896,392,16168,-944,-189,-118,1,0
33.9439,1072,624,16252,-944,-165,-427,1,0
33.96051,1312,528,16344,-944,-225,55,1,0
33.99372,1024,420,16144,-928,-339,307,1,0
34.02693,1300,104,16344,-912,-155,-125,1,0
34.04353,1304,408,16220,-928,-186,281,1,0
34.07674,1164,312,16048,-928,-180,220,1,0
34.07674,1132,572,16336,-944,-49,423,1,0
34.12656,988,336,16376,-960,-266,266,1,0
34.12656,1180,424,16120,-944,-130,102,1,0
34.17637,1324,444,16280,-944,-113,314,1,0
34.17637,1152,188,16252,-928,-191,534,1,0
34.22618,752,364,15744,-944,-249,209,1,0
34.22618,816,472,16404,-928,-321,151,1,0
34.276,1172,400,16456,-928,36,-197,1,0
34.30921,1408,344,16328,-960,-78,271,1,0
34.30921,1104,368,16112,-944,-55,700,1,0
34.34241,760,388,16020,-944,-173,71,1,0
34.35902,1240,500,16244,-928,-19,-75,1,0
34.39223,948,344,16204,-928,-449,136,1,0
34.40883,1176,216,16212,-960,-112,-191,1,0
34.44204,1460,196,16412,-960,-79,79,1,0
34.44204,1216,272,16220,-944,-138,783,1,0
34.49186,864,352,16176,-912,40,273,1,0
34.49186,1036,416,16144,-944,-166,258,1,0
34.54119,1068,172,16236,-960,-197,196,1,0
34.5744,1148,268,16284,-944,-35,168,1,0
34.5744,924,500,16304,-928,-220,243,1,0
34.62416,876,400,16300,-928,-271,9,1,0
34.62416,1336,328,16408,-960,4,-113,1,0
34.65735,1208,292,16072,-976,-162,518,1,0
34.67395,900,352,16228,-928,-95,401,1,0
34.70714,1016,412,16380,-944,-58,8,1,0
34.72374,1112,380,16284,-928,-144,98,1,0
34.75692,1136,256,16132,-928,-164,280,1,0
34.75692,1064,212,16252,-944,54,293,1,0
34.77352,1028,272,16336,-928,-87,392,1,0
34.79011,1216,-72,16340,-928,-102,682,1,0
34.85649,916,92,16140,-960,-135,363,1,0
34.88968,844,388,16028,-928,-170,412,1,0
34.88968,632,376,16312,-944,-170,195,1,0
34.93946,952,400,16480,-944,-43,-257,1,0
34.93946,1348,152,16336,-928,-157,229,1,0
34.98925,1260,188,16136,-960,-75,607,1,0
34.98925,588,452,16140,-960,-307,294,1,0
35.02244,552,508,15892,-944,-552,-555,1,0
35.02244,1536,-24,16568,-944,-205,-889,1,0
35.07222,1568,196,16528,-928,-83,674,1,0
35.07222,764,-132,16288,-928,-42,466,1,0
35.12201,792,512,16056,-928,-138,241,1,0
35.17179,836,168,16152,-928,51,46,1,0
35.17179,1104,364,16424,-960,-168,192,1,0
35.20498,1088,208,16268,-944,-79,654,1,0
35.20498,904,-96,16168,-928,-135,460,1,0
35.25477,1008,256,16216,-896,138,178,1,0
35.28796,780,344,16204,-976,-179,326,1,0
35.28796,988,372,16192,-960,-75,126,1,0
35.33774,988,272,16244,-944,-77,-93,1,0
35.35434,928,348,16220,-960,-251,224,1,0
35.38752,1004,80,16344,-928,5,3,1,0
35.38752,1248,12,16260,-960,25,224,1,0
35.4705,992,228,16060,-928,-96,303,1,0
35.48709,792,372,16076,-944,90,-34,1,0
35.52028,944,320,16320,-928,-225,-136,0,0
35.52028,984,180,16356,-960,-149,29,0,0
35.57007,1036,264,16248,-896,74,272,0,0
35.57007,1108,96,16352,-944,-112,172,0,0
35.61985,1136,280,16148,-912,-94,221,0,0
35.65304,888,252,16152,-928,-104,140,0,0
35.65304,928,356,16440,-944,109,-169,0,0
35.70282,1204,64,16172,-944,22,77,0,0
35.70282,1140,236,16360,-928,14,52,0,0
35.83558,1072,500,16384,-928,-38,296,0,0
35.93515,904,296,16316,-960,-93,308,0,0
35.93515,944,292,16212,-912,-164,131,0,0
36.06791,1176,128,16240,-960,-163,70,0,0
36.06791,1072,376,16292,-928,34,207,0,0
36.15088,1052,248,16668,-960,101,410,0,0
36.15088,1028,300,16332,-944,-113,704,0,0
36.25045,788,196,16168,-960,-17,427,0,0
36.28364,1076,200,16188,-912,121,246,0,0
36.28364,992,224,16332,-880,113,493,0,0
36.36661,856,380,16312,-944,-30,523,0,0
36.36661,572,356,16148,-960,-5,398,0,0
36.38321,680,432,16332,-944,-199,83,0,0
36.3998,1140,520,16504,-928,-310,-18,0,0
36.46618,1012,256,16088,-944,-169,160,0,0
36.46618,860,124,16260,-928,-36,140,0,0
36.51597,800,308,16208,-912,-34,132,0,0
36.51597,748,340,16116,-960,-143,175,0,0
36.56575,748,224,16172,-944,-67,140,0,0
36.59894,1000,288,16432,-928,-75,81,0,0
36.59894,944,336,16416,-944,-9,330,0,0
36.64872,856,340,16292,-944,-187,194,0,0
36.64872,920,176,16264,-960,-42,30,0,0
36.69851,896,288,16436,-928,-90,201,0,0
36.69851,984,128,16332,-928,-142,250,0,0
36.7317,656,284,16136,-960,-58,296,0,0
36.7317,768,252,16240,-928,-116,-61,0,0
36.78149,904,344,16444,-944,-115,-109,0,0
36.78149,1280,96,16200,-912,78,204,0,0
36.83127,864,192,16152,-944,-113,587,0,0
36.83127,508,388,16292,-928,-100,144,0,0
36.88105,988,176,16392,-976,174,-174,0,0
36.88105,1152,312,16344,-944,71,529,0,0
36.91425,760,260,16220,-928,13,492,0,0
36.96403,948,340,16160,-928,251,328,0,0
36.96403,716,620,16128,-928,-73,367,0,0
37.01381,844,148,16000,-944,-119,130,0,0
37.01381,1008,376,16400,-896,214,167,0,0
37.06359,912,220,16292,-928,-63,566,0,0
37.06359,672,416,16048,-960,-94,292,0,0
37.09679,920,136,16276,-912,145,-54,0,0
37.14657,1028,444,16452,-944,81,209,0,0
37.14657,1068,384,16288,-912,66,523,0,0
37.17976,804,424,16068,-960,242,385,0,0
37.19635,988,244,16144,-944,379,431,0,0
37.22954,580,564,16204,-912,173,602,0,0
37.22954,516,696,15968,-960,76,174,0,0
37.26273,552,488,16288,-944,52,-33,0,0
37.26273,680,356,16412,-928,-140,-128,0,0
37.32912,932,108,16388,-944,51,128,0,0
37.32912,832,536,16272,-928,-64,387,0,0
37.36231,580,420,16132,-944,3,136,0,0
37.3789,904,372,16336,-928,89,298,0,0
37.39549,816,360,16268,-960,-45,377,0,0
37.39549,792,620,16340,-944,228,393,0,0
37.46225,584,644,16376,-928,-22,506,0,0
37.46225,544,584,16332,-944,69,169,0,0
37.51207,728,488,16464,-960,188,245,0,0
37.51207,884,488,16220,-960,196,283,0,0
37.54528,720,716,16080,-944,-21,430,0,0
37.57848,512,584,16320,-928,62,288,0,0
37.59509,600,628,16252,-944,75,256,0,0
37.62829,556,552,16384,-928,-74,226,0,0
37.62829,692,656,16184,-928,113,360,0,0
37.6781,492,584,16260,-880,129,309,0,0
37.6947,524,684,16284,-896,-138,189,0,0
37.72791,708,560,16140,-928,67,97,0,0
37.72791,560,360,16244,-912,-5,247,0,0
37.77771,632,724,16208,-896,58,338,0,0
37.77771,488,524,16100,-944,-51,218,0,0
37.82752,668,500,16292,-912,-24,29,0,0
37.84412,676,680,16248,-944,120,153,0,0
37.86044,484,664,16340,-928,-69,307,0,0
37.91053,684,592,16304,-912,33,49,0,0
37.91053,752,728,16336,-944,-72,203,0,0
37.96034,580,656,16308,-944,-33,10,0,0
37.99355,672,576,16132,-928,0,-186,0,0
38.04336,752,540,16280,-928,-71,-55,0,0
38.09317,664,624,16384,-928,87,22,0,0
38.09317,568,616,16180,-928,-86,77,0,0
38.12621,736,300,16372,-912,107,-171,0,0
38.12621,812,824,16408,-944,333,-98,0,0
38.17618,624,728,16192,-912,-68,175,0,0
38.20938,632,764,16156,-944,78,-211,0,0
38.20938,780,636,16104,-928,-120,-283,0,0
38.27579,968,720,16384,-928,-51,-46,0,0
38.30901,812,708,16424,-928,51,135,0,0
38.32561,712,768,15992,-944,-64,67,0,0
38.39202,680,784,16212,-960,-107,-168,0,0
38.40862,844,876,16396,-944,-122,-235,0,0
38.49164,780,716,16296,-976,-122,86,0,0
38.49164,760,672,16172,-896,-129,-186,0,0
38.52484,820,776,16188,-896,-42,16,0,0
38.62446,892,684,16396,-960,-29,-18,0,0
38.64106,904,756,16248,-976,-77,-155,0,0
38.75728,844,780,16152,-928,-139,-32,0,0
38.75728,780,548,16296,-912,-66,-209,0,0
38.80709,1092,644,16268,-928,-84,-237,0,0
38.80709,1040,652,16244,-912,-58,-35,0,0
38.8569,1048,640,16096,-960,-102,-13,0,0
38.8569,1112,692,16232,-944,-133,-210,0,0
38.9067,952,864,16096,-912,-194,-305,0,0
38.9399,1080,788,16188,-944,-238,-390,0,0
38.9399,1064,708,16232,-960,-98,-229,0,0
38.98971,1276,612,16328,-976,-183,-327,0,0
38.98971,1092,668,16172,-928,-91,-316,0,0
39.02292,1108,704,16220,-928,-236,-271,0,0
39.03952,1200,672,16332,-944,-228,-169,0,0
39.07273,1168,532,16312,-944,-155,0,0,0
39.08933,1364,596,16320,-928,-46,-2,0,0
39.12254,1036,668,16160,-896,-151,-152,0,0
39.17235,1236,520,16052,-912,-166,-169,0,0
39.17235,1308,584,16376,-944,-238,184,0,0
39.25536,1180,600,16008,-912,-179,211,0,0
39.25536,1324,640,16056,-928,-99,120,0,0
39.30517,1304,624,16196,-944,-85,-38,0,0
39.30517,1332,720,16212,-960,-83,-59,0,0
39.33838,1404,628,16224,-928,-175,-48,0,0
39.33838,1320,624,16212,-912,-148,-36,0,0
39.38772,1400,556,16204,-912,-97,20,0,0
39.40433,1216,752,16152,-960,-132,20,0,0
39.43753,1388,572,16136,-944,-190,28,0,0
39.48729,1372,600,16332,-928,44,13,0,0
39.48729,1424,636,16376,-928,-165,160,0,0
39.52047,1436,648,16148,-928,-85,-14,0,0
39.52047,1388,596,16328,-944,-99,-81,0,0
39.57025,1428,656,16228,-928,-116,115,0,0
39.57025,1368,660,16236,-944,-182,43,0,0
39.62002,1564,516,16244,-944,-184,330,0,0
39.62002,1476,572,16204,-928,-263,190,0,0
39.65321,1360,588,16176,-944,-283,-81,0,0
39.70299,1312,508,16204,-976,-250,-40,0,0
39.70299,1288,660,16372,-912,-216,45,0,0
39.75276,1572,484,16068,-928,-223,118,0,0
39.75276,1272,624,16160,-960,-203,162,0,0
39.80253,1444,584,16060,-928,-170,10,0,0
39.80253,1624,560,16224,-912,-196,58,0,0
39.83572,1568,452,16276,-944,-107,-9,0,0
39.88549,1444,440,16136,-912,-154,89,0,0
39.88549,1416,352,16220,-912,-200,309,0,0
40.01822,1416,428,16252,-928,-122,151,0,0
40.03481,1504,508,16324,-928,3,121,0,0
40.068,1472,532,16200,-928,-98,66,0,0
40.068,1504,580,16136,-944,-219,47,0,0
40.11814,1532,552,16128,-928,-181,122,0,0
40.11814,1576,520,16272,-912,-190,117,0,0
40.16791,1572,532,16356,-944,-151,169,0,0
40.2011,1532,416,16288,-944,-77,209,0,0
40.2011,1508,480,16208,-928,-34,296,0,0
40.28421,1452,360,16172,-912,-79,318,0,0
40.30082,1432,388,16180,-944,-21,276,0,0
40.33403,1364,536,16192,-912,-16,320,0,0
40.33403,1464,380,16184,-896,-79,221,0,0
40.38386,1416,356,16152,-944,-124,142,0,0
40.38386,1552,352,16208,-944,-69,179,0,0
40.43369,1452,468,16124,-928,-71,155,0,0
40.43369,1576,500,16228,-928,-105,100,0,0
40.4669,1596,432,16208,-928,-105,277,0,0
40.4669,1456,572,16356,-960,37,505,0,0
40.51673,1536,520,16312,-944,143,687,0,0
40.54995,1184,568,16188,-928,-57,768,0,0
40.56637,1408,508,16256,-944,-266,408,0,0
40.61638,1296,464,16180,-944,-193,-51,0,0
40.61638,1404,532,16216,-928,-88,45,0,0
40.6496,1260,452,16332,-896,-165,283,0,0
40.74924,1300,104,16252,-912,-253,418,0,0
40.74924,1368,292,16412,-928,53,9,0,0
40.83228,1464,628,16168,-928,-190,66,0,0
40.83228,1376,660,16116,-944,41,131,0,0
40.96514,1344,524,16172,-960,-110,289,0,0
41.01497,1204,564,16196,-944,-63,222,0,0
41.01497,1236,460,16368,-928,-103,34,0,0
41.06479,1384,504,16264,-912,-68,44,0,0
41.06479,1316,500,16084,-960,-69,205,0,0
41.11462,1472,388,16336,-928,-115,241,0,0
41.14783,1316,464,16288,-912,-124,236,0,0
41.14783,1324,420,16272,-944,-78,190,0,0
41.19766,1308,396,16188,-928,-113,120,0,0
41.19766,1356,376,16172,-944,-111,110,0,0
41.23088,1356,440,16108,-928,-96,173,0,0
41.24749,1412,516,16280,-928,-177,88,0,0
41.33053,1368,488,16380,-928,-180,159,0,0
41.33053,1356,520,16112,-912,-127,121,0,0
41.38035,1336,440,16252,-896,-80,112,0,0
41.38035,1412,400,16260,-944,-134,203,0,0
41.41357,1324,388,16124,-912,-131,165,0,0
41.42971,1408,360,16052,-928,-78,30,0,0
41.46293,1456,396,16328,-928,-63,168,0,0
41.46293,1312,464,16084,-912,-71,326,0,0
41.51271,1324,428,16164,-960,-48,316,0,0
41.54591,1356,408,16100,-944,-61,188,0,0
41.56251,1324,476,16092,-944,-119,195,0,0
41.6455,1384,676,16320,-944,-70,82,0,0
41.6455,1432,460,16224,-944,-80,334,0,0
41.6953,1400,396,16096,-960,-296,205,0,0
41.7285,1356,300,16104,-912,-382,93,0,0
41.7285,1380,420,16260,-960,-225,-1,0,0
41.7783,1288,312,16328,-960,-163,17,0,0
41.7783,1288,268,16140,-944,-213,28,0,0
41.82809,1360,424,16332,-944,-154,38,0,0
41.82809,1316,436,16292,-944,-160,167,0,0
41.86129,1356,228,16188,-928,-231,279,0,0
41.87789,1356,336,16400,-928,-172,244,0,0
41.91093,1496,332,16164,-928,-94,220,0,0
41.96089,1196,340,16116,-912,-175,98,0,0
41.96089,1312,456,16284,-944,-159,-33,0,0
41.99409,1388,460,16124,-944,-107,57,0,0
42.01068,1532,404,16244,-896,-125,88,0,0
42.04388,1208,392,16220,-944,-61,94,0,0
42.06048,1380,272,16400,-960,-58,148,0,0
42.09362,1424,220,16228,-912,-88,416,0,0
42.09362,1304,328,16124,-912,-181,308,0,0
42.14348,1452,344,16228,-928,-68,170,0,0
42.14348,1308,412,16204,-928,-124,-80,0,0
42.17668,1408,436,16176,-928,-185,-127,0,0
42.19327,1320,476,16248,-944,-172,49,0,0
42.22647,1496,336,16120,-912,-156,174,0,0
42.27627,1384,292,16340,-928,-92,167,0,0
42.27627,1496,172,16396,-928,-46,180,0,0
42.32607,1320,288,16228,-944,-93,220,0,0
42.32607,1352,360,16128,-928,-54,204,0,0
42.34267,1524,216,16476,-912,15,388,0,0
42.39246,1364,368,16264,-928,-43,330,0,0
42.40906,1396,236,16196,-944,-75,181,0,0
42.44216,1428,328,16240,-912,-43,233,0,0
42.49206,1352,340,15900,-928,-23,157,0,0
42.50866,1436,260,16172,-944,-81,43,0,0
42.54185,1392,264,16064,-928,-29,116,0,0
42.59165,1304,376,16152,-928,-88,145,0,0
42.59165,1224,204,16260,-928,-370,276,0,0
42.62485,1620,88,16360,-880,-507,748,0,0
42.67465,1736,900,16052,-928,734,244,0,0
42.69125,1188,348,16008,-944,-164,505,1,0
42.72445,1268,392,15880,-928,-126,-35,1,0
42.72445,1408,204,16280,-912,-111,-81,1,0
42.75764,1308,340,16112,-928,-116,-14,1,0
42.80744,1416,328,16220,-896,-164,86,1,0
42.85724,1388,264,16280,-912,-213,100,1,0
42.85724,1376,324,16128,-928,-249,-25,1,0
42.90704,1476,340,16208,-960,-161,-62,1,0
42.94024,1312,224,16236,-928,-103,21,1,0
42.95683,1416,292,16112,-928,-154,100,1,0
42.99003,1424,288,16224,-928,-143,-16,1,0
43.02323,1296,356,16216,-928,-52,133,1,0
43.03983,1396,276,16240,-896,-118,252,1,0
43.08962,1416,212,16256,-928,-176,111,1,0
43.12282,1436,228,16252,-896,-143,89,1,0
43.12282,1328,356,16204,-928,-72,98,1,0
43.17262,1312,268,16356,-912,-52,219,1,0
43.22242,1464,232,16388,-992,-52,125,1,0
43.22242,1372,212,16308,-960,-24,215,1,0
43.27222,1544,212,16344,-928,-46,42,1,0
43.30541,1444,284,16252,-912,-51,129,1,0
43.30541,1372,288,16272,-928,-64,268,1,0
43.35521,1508,116,16372,-896,64,267,1,0
43.40501,1360,292,16336,-928,-5,204,1,0
43.40501,1436,400,16272,-928,-121,186,1,0
43.43821,1360,296,16288,-928,-129,197,1,0
43.48801,1388,320,16296,-944,-86,187,1,0
43.48801,1444,336,16212,-896,-68,142,1,0
43.5212,1356,252,16216,-928,-49,134,1,0
43.571,1332,300,16212,-944,-44,275,1,0
43.6208,1296,212,16048,-912,-48,165,1,0
43.6208,1364,272,16160,-912,180,-7,1,0
43.6706,1208,168,16192,-928,241,-23,1,0
43.7038,1452,320,16136,-896,114,-89,1,0
43.72039,1556,280,16320,-960,69,-68,1,0
43.75359,1464,384,16284,-912,173,-13,1,0
43.80339,1568,408,16428,-896,193,54,1,0
43.80339,1356,392,16024,-928,48,-97,1,0
43.85319,1612,408,16300,-928,24,-29,1,0
43.85319,1528,580,16360,-928,-230,258,1,0
43.93618,1556,464,16116,-896,-357,351,1,0
43.93618,1700,392,16256,-896,-379,284,1,0
43.98598,1356,684,16200,-944,-329,255,1,0
44.01918,1480,-40,16184,-960,-413,-3,1,0
44.03577,1576,340,16048,-928,-190,-265,1,0
44.06897,1596,336,16332,-912,-148,-76,1,0
44.11877,1472,452,16272,-928,-218,84,1,0
44.11877,1428,344,16220,-944,-213,38,1,0
44.15197,1432,204,16376,-928,-201,-104,1,0
44.25156,1688,280,16280,-912,-61,-242,1,0
44.25156,1620,432,16420,-928,-109,382,1,0
44.28476,1244,324,15976,-928,-232,256,1,0
44.30136,1512,236,16028,-896,-215,-452,1,0
44.35116,1692,352,16220,-944,-422,-367,1,0
44.35116,1748,100,16200,-928,-597,-395,1,0
44.38436,1820,76,16112,-896,-315,-168,1,0
44.43416,1500,224,16392,-960,-338,-65,1,0
44.43416,1652,284,16176,-896,-520,-71,1,0
44.48396,1720,188,16060,-928,-334,-252,1,0
44.56695,1800,260,16040,-928,-429,-494,1,0
44.56695,1720,144,16244,-960,-360,-377,1,0
44.61675,2016,-116,16020,-944,-442,-697,1,0
44.61675,2036,212,16140,-960,-567,-747,1,0
44.64995,1656,-36,16232,-912,-793,-858,1,0
44.66655,2256,-232,16364,-896,-379,-797,1,0
44.69975,2292,-116,16200,-896,-208,-181,1,0
44.74954,2136,68,16140,-896,-143,20,1,0
44.74954,1912,20,16080,-928,-272,-103,1,0
44.78273,2100,-8,15984,-944,-291,-334,1,0
44.83254,2332,-76,16172,-912,-257,-265,1,0
44.88234,2356,-84,16032,-896,-162,237,1,0
44.88234,2216,-332,16352,-944,-196,-158,1,0
44.91553,2176,16,15976,-912,-163,22,1,0
44.91553,2172,-260,15836,-928,-159,-144,1,0
44.96533,2320,-16,16268,-912,71,-48,1,0
45.01513,2148,-132,16244,-896,-144,-108,1,0
45.01513,2208,-104,16140,-928,-101,-178,1,0
45.06493,2432,-60,16204,-944,-47,-204,1,0
45.09812,2276,112,16064,-928,-106,73,1,0
45.11472,2168,-40,16028,-944,-284,-225,1,0
45.14791,2800,-364,16024,-928,410,-214,1,0
45.19771,2548,-236,16448,-928,1401,129,1,0
45.19771,2092,744,16212,-896,764,-76,1,0
45.24751,2284,80,16036,-928,28,67,1,0
45.28071,2348,200,15992,-928,27,-105,1,0
45.29731,2432,208,16048,-928,100,-75,1,0
45.33051,2440,100,16304,-912,56,-151,1,0
45.3803,2524,296,16100,-912,-54,26,1,0
45.3803,2648,-108,16160,-880,20,-8,1,0
45.4135,2708,96,15996,-928,345,86,1,0
45.5131,2408,264,15820,-912,-53,302,1,0
45.5131,2292,180,16152,-896,94,-398,1,0
45.56289,2568,396,16220,-928,7,-253,1,0
45.56289,2484,216,16092,-944,-141,-66,1,0
45.61269,2656,216,16136,-912,-199,-344,1,0
45.61269,2436,112,16112,-928,-319,-380,1,0
45.64589,2768,-28,16024,-896,-93,-288,1,0
45.67908,2808,184,16052,-896,38,67,1,0
45.69568,2696,212,15884,-928,-63,-113,1,0
45.74548,2944,44,16172,-944,252,-137,1,0
45.74548,2784,364,16112,-976,260,415,1,0
45.82848,2404,460,16052,-912,143,110,1,0
45.87871,2396,408,16060,-896,-94,-76,1,0
45.87871,2872,112,16220,-912,56,-232,1,0
45.89531,2904,304,16208,-912,34,156,1,0
45.9285,2756,376,15928,-944,-159,127,1,0
45.96172,2772,60,15996,-944,-235,-113,1,0
45.96172,2724,216,15876,-928,-246,-214,1,0
46.01154,3100,72,16172,-912,-109,-104,1,0
46.04476,2860,272,16036,-928,-60,271,1,0
46.06137,3112,64,15884,-944,-60,328,1,0
46.14441,2520,460,16152,-928,130,216,1,0
46.14441,2512,624,16108,-928,-90,41,1,0
46.17762,2604,492,16144,-912,-224,146,1,0
46.22745,2668,272,16076,-928,-299,31,1,0
46.24406,2684,312,15996,-944,-195,-156,1,0
46.26067,2948,76,16060,-912,-51,-14,1,0
46.27728,2848,348,16188,-912,-189,158,1,0
46.3271,2820,136,15948,-912,-103,-22,1,0
46.3271,2904,220,16208,-912,55,97,1,0
46.37693,2732,272,15960,-928,60,341,1,0
46.41014,2708,436,16112,-912,-89,-44,1,0
46.42675,2764,368,16228,-928,-65,-145,1,0
46.45997,3164,228,16304,-944,56,211,1,0
46.45997,2948,260,16096,-928,-5,556,1,0
46.5098,2540,368,15936,-944,-202,244,1,0
46.55962,2520,476,15892,-912,-204,-156,1,0
46.59284,2796,84,15864,-912,61,-405,1,0
46.59284,3104,284,16092,-928,199,-120,1,0
46.64267,3136,328,15980,-944,-19,80,1,0
46.67588,3016,164,15848,-944,-53,183,1,0
46.67588,2832,500,16256,-928,-42,196,1,0
46.77554,2860,456,16028,-960,-136,210,1,0
46.77554,3004,416,16020,-928,-225,169,1,0
46.85858,2920,196,15872,-912,-143,272,1,0
46.85858,2776,468,15936,-912,-99,113,1,0
46.9084,2956,308,15840,-912,-285,-3,1,0
46.9084,3112,432,15984,-896,-121,173,1,0
46.95823,2836,176,16096,-960,149,293,1,0
46.95823,2836,432,16072,-928,-48,120,1,0
47.00805,2876,228,16004,-912,-108,173,1,0
47.0911,2988,324,15920,-928,21,-4,1,0
47.0911,2632,500,16104,-944,-96,262,1,0
47.17364,2740,468,16004,-944,-55,65,1,0
47.19027,3156,164,16092,-928,-26,93,1,0
47.2235,2828,336,15772,-944,19,323,1,0
47.2235,2888,584,15956,-928,121,258,1,0
47.27336,2808,492,16024,-928,-150,210,1,0
47.27336,2912,132,15732,-944,13,29,1,0
47.30659,3108,272,15908,-928,474,159,1,0
47.30659,2972,616,16092,-880,144,413,1,0
47.35644,2380,580,15804,-928,-354,180,1,0
47.35644,2728,520,15904,-944,-468,-527,1,0
47.40629,3332,172,16464,-912,351,402,1,0
47.48937,2812,492,16216,-928,-103,720,1,0
47.48937,2544,640,15588,-928,-162,285,1,0
47.57245,2780,416,15984,-912,-185,-170,1,0
47.58907,3192,380,16284,-928,-54,189,1,0
47.6223,2760,496,16072,-944,-189,409,1,0
47.63892,2768,148,15856,-912,-73,243,1,0
47.67215,2612,444,15940,-928,14,147,1,0
47.80508,2816,300,15980,-928,-158,-83,1,0
47.80508,3000,620,16140,-896,198,99,1,0
47.90429,2744,596,16008,-912,-211,238,1,0
47.90429,2768,468,16224,-928,-78,102,1,0
47.93752,2824,480,16036,-896,-98,150,1,0
47.95414,3088,208,15976,-944,209,315,1,0
47.9873,2824,548,16016,-896,77,225,1,0
47.9873,2536,724,16076,-944,-186,222,1,0
48.0371,2748,344,15988,-896,-239,-162,1,0
48.0371,3072,320,16256,-896,10,373,1,0
48.07031,2892,328,16028,-944,-129,458,1,0
48.12012,2680,588,15772,-896,-190,282,1,0
48.12012,2672,280,15868,-928,-83,168,1,0
48.15332,2900,528,16216,-944,34,-144,1,0
48.16993,3064,412,16076,-912,-182,445,1,0
48.21974,2648,476,15864,-928,-48,542,1,0
48.21974,2616,460,15972,-928,-244,100,1,0
48.25294,2872,300,16020,-912,-191,-47,1,0
48.25294,3008,268,15976,-912,-80,356,1,0
48.30275,2880,308,16132,-928,92,244,1,0
48.30275,2608,632,16156,-928,-17,257,1,0
48.33596,2752,392,15976,-912,-33,109,1,0
48.33596,2928,308,16168,-896,-97,18,1,0
48.43558,2840,448,16188,-896,24,222,1,0
48.48539,2740,508,16160,-960,-79,310,1,0
48.48539,2632,384,15892,-944,-77,201,1,0
48.51859,2740,256,16000,-912,-322,37,1,0
48.5352,2932,320,16004,-912,30,213,1,0
48.56841,2740,360,15980,-912,-238,438,1,0
48.56841,2500,472,16192,-928,-229,-222,1,0
48.61821,3188,260,16116,-912,-55,192,1,0
48.61821,2608,400,15888,-896,-58,399,1,0
48.66803,2508,588,16068,-880,-149,137,1,0
48.66803,2800,308,16304,-928,-104,-37,1,0
48.71783,2836,504,16012,-896,-141,178,1,0
48.75104,2972,372,15988,-896,-54,303,1,0
48.75104,2512,596,15928,-928,-120,242,1,0
48.80085,2620,240,15824,-928,-351,-139,1,0
48.80085,2820,232,16296,-928,62,-204,1,0
48.83405,3000,240,16284,-944,-126,391,1,0
48.83405,2748,320,16020,-928,116,605,1,0
48.88387,2468,632,15828,-928,-362,224,1,0
48.88387,2604,428,16012,-912,-359,-285,1,0
48.93367,3228,160,16388,-928,-169,-33,1,0
48.96688,2996,456,16072,-928,72,496,1,0
48.98348,2604,440,15968,-912,28,357,1,0
49.01669,2476,388,15676,-928,-250,-67,1,0
49.01669,2788,248,16132,-944,-12,-181,1,0
49.0665,3020,288,16244,-944,-9,272,1,0
49.0665,2728,384,15952,-928,-58,427,1,0
49.11631,2700,468,15900,-960,-255,103,1,0
49.14951,2920,208,16056,-928,-71,-55,1,0
49.16612,2796,276,15948,-928,-135,194,1,0
49.19933,2868,348,16088,-912,-162,295,1,0
49.19933,2828,340,16152,-944,21,257,1,0
49.24913,2600,444,16192,-928,-33,121,1,0
49.24913,3000,188,16136,-912,-42,110,1,0
49.29895,2764,368,15808,-912,-47,304,1,0
49.33215,2584,532,16056,-912,-115,98,1,0
49.34875,2928,220,16160,-880,-145,81,1,0
49.38196,2836,348,16068,-944,-88,183,1,0
49.38196,2816,276,16116,-928,-147,284,1,0
49.48158,2708,296,16000,-928,67,239,1,0
49.48158,2716,444,15908,-896,-189,464,1,0
49.51479,2660,116,15808,-928,-285,205,1,0
49.53139,2952,392,16008,-928,-92,45,1,0
49.56459,2724,296,16036,-912,-145,316,1,0
49.5978,2592,504,16148,-896,-267,115,1,0
49.61441,2688,280,16168,-928,10,210,1,0
49.64761,2880,60,16024,-896,57,49,1,0
49.64761,2836,432,16240,-896,70,518,1,0
49.69742,2688,348,16032,-928,-60,227,1,0
49.78044,2464,328,16020,-896,-207,-96,1,0
49.79704,2628,428,16124,-912,28,63,1,0
49.83025,2984,88,16224,-912,-48,177,1,0
49.83025,2600,180,15952,-928,-65,409,1,0
49.88006,2420,292,15804,-944,-73,93,1,0
49.91326,2860,184,16172,-896,-15,-119,1,0
49.91326,3052,408,16236,-896,1,391,1,0
49.96307,2464,408,16028,-912,-177,196,1,0
49.96307,2776,424,15952,-912,-127,24,0,0
50.01288,2660,352,16112,-928,-221,28,0,0
50.0959,2704,400,16136,-960,-75,67,0,0
50.1125,2984,228,16088,-928,37,294,0,0
50.14571,2648,440,15856,-944,-213,314,0,0
50.16231,2508,332,15912,-928,-68,106,0,0
50.19552,2904,232,16280,-928,-60,135,0,0
50.19552,2768,304,16284,-944,-176,160,0,0
50.24532,2772,404,16088,-896,-211,155,0,0
50.24532,2900,196,16052,-960,126,283,0,0
50.27853,2800,288,16072,-912,-118,337,0,0
50.29514,2436,352,15864,-912,-77,175,0,0
50.32834,2708,492,16076,-896,-153,19,0,0
50.37815,2856,328,16052,-928,-96,291,0,0
50.37815,2604,300,16012,-912,-234,206,0,0
50.42796,2872,148,16064,-912,74,59,0,0
50.46117,2904,360,16216,-928,67,355,0,0
50.46117,2832,284,16000,-912,-29,408,0,0
50.51097,2704,232,16188,-896,105,435,0,0
50.54418,2760,320,15972,-896,137,594,0,0
50.56079,2588,196,16008,-928,170,654,0,0
50.59399,2532,236,16000,-912,117,476,0,0
50.6438,2644,500,16016,-912,177,704,0,0
50.6438,2244,532,15960,-912,-49,218,0,0
50.72682,2600,460,16204,-912,-79,288,0,0
50.77663,2912,344,16240,-912,43,572,0,0
50.77663,2840,156,16428,-896,470,1159,0,0
50.80983,2448,444,16132,-912,296,1391,0,0
50.80983,2292,612,16040,-896,420,1328,0,0
50.87624,2080,504,16032,-912,359,912,0,0
50.87624,2240,532,16168,-912,585,855,0,0
50.90945,2320,536,16232,-896,335,987,0,0
50.92606,2188,432,16056,-928,208,1174,0,0
50.95926,1728,796,15892,-912,-72,591,0,0
50.97586,2336,556,15928,-928,-226,333,0,0
50.99247,2052,392,16332,-912,386,1216,0,0
51.04228,2160,420,16260,-928,689,1221,0,0
51.05888,1644,788,16052,-912,617,1642,0,0
51.09209,1592,784,15868,-928,41,954,0,0
51.1419,1696,780,15932,-912,100,584,0,0
51.1419,1700,776,16048,-896,-84,571,0,0
51.19171,1964,584,16292,-928,96,457,0,0
51.22491,1608,752,16096,-912,-113,417,0,0
51.24152,1584,804,16116,-928,90,376,0,0
51.27472,1424,732,16140,-928,-375,181,0,0
51.35773,1748,760,16176,-944,-260,105,0,0
51.37434,1436,812,16344,-896,-599,-34,0,0
51.40754,2168,600,16024,-944,-618,-136,0,0
51.40754,1744,408,16376,-912,100,815,0,0
51.45736,1656,540,16176,-912,5,411,0,0
51.45736,1672,676,16224,-928,29,414,0,0
51.49056,1908,644,16168,-912,166,340,0,0
51.54037,1716,808,16100,-896,118,631,0,0
51.54037,1364,548,15880,-928,-143,373,0,0
51.59018,1632,528,16292,-912,243,238,0,0
51.59018,1548,688,16348,-912,221,570,0,0
51.67319,1292,712,16240,-912,-29,404,0,0
51.72301,1748,608,16104,-896,198,365,0,0
51.72301,1512,820,16116,-880,13,460,0,0
51.77282,1536,900,16220,-928,-72,53,0,0
51.77282,1648,944,16312,-960,-197,296,0,0
51.80602,1660,420,16456,-880,297,910,0,0
51.80602,1388,800,16080,-912,200,1302,0,0
51.85583,1280,804,16012,-896,140,752,0,0
51.85583,1452,820,16108,-912,154,610,0,0
51.90564,1232,856,16180,-928,103,754,0,0
51.95545,1140,696,16188,-928,-83,478,0,0
51.95545,1268,732,16104,-944,-172,185,0,0
51.98866,1224,708,16348,-912,182,277,0,0
51.98866,1216,716,16300,-944,159,313,0,0
52.03847,1128,896,16152,-880,-136,312,0,0
52.07167,1412,668,16168,-928,71,38,0,0
52.07167,1460,1640,16060,-928,838,-207,0,0
52.12149,1320,468,16644,-928,94,200,0,0
52.1713,1132,1156,16232,-960,-40,280,0,0
52.1713,1180,916,16048,-944,-191,-126,0,0
52.22111,1212,792,16204,-912,-150,-39,0,0
52.25431,1368,904,16312,-896,-122,-104,0,0
52.25431,1272,1192,16220,-912,-232,-70,0,0
52.30412,1352,852,16204,-944,-56,-168,0,0
52.35393,1428,376,16108,-912,-234,-311,0,0
52.40374,1284,1016,16180,-928,-8,22,0,0
52.43694,1368,972,16200,-896,-155,-137,0,0
52.43694,1356,868,16428,-928,-203,68,0,0
52.48675,1472,876,16116,-896,-88,-42,0,0
52.48675,1376,896,16220,-928,-59,-212,0,0
52.53656,1412,760,16216,-928,-348,-316,0,0
52.56977,1532,768,16004,-944,259,-369,0,0
52.58637,1568,620,16424,-896,-201,-185,0,0
52.61958,1396,912,15888,-944,-346,-402,0,0
52.70259,1760,612,16312,-960,-71,-370,0,0
52.7192,1600,856,16244,-896,-226,-158,0,0
52.76901,1504,820,16088,-928,-299,-36,0,0
52.76901,1680,680,16248,-912,-87,-107,0,0
52.78561,1696,916,16380,-880,-38,75,0,0
52.78561,1768,660,16228,-912,-24,-32,0,0
52.85202,1640,772,15940,-944,-74,-13,0,0
52.88523,1728,788,16120,-912,-71,-239,0,0
52.88523,1688,672,16156,-896,18,-362,0,0
52.93504,1816,764,16124,-912,-29,-282,0,0
52.98485,1796,948,16320,-912,-121,-183,0,0
52.98485,1864,736,16184,-912,-190,-168,0,0
53.01806,1852,768,16112,-928,-183,-59,0,0
53.06787,1776,708,16280,-912,88,-152,0,0
53.08447,1884,652,16108,-880,-87,-60,0,0
53.10107,1748,864,16064,-928,8,-114,0,0
53.11768,1864,828,16044,-944,-81,-262,0,0
53.15088,1984,816,16108,-912,-98,19,0,0
53.20069,1852,608,16072,-944,-180,151,0,0
53.20069,2032,656,16272,-880,-51,94,0,0
53.2505,1880,820,15992,-912,51,-19,0,0
53.30031,1968,860,16024,-912,-86,-234,0,0
53.30031,1948,752,16268,-912,-145,-2,0,0
53.35012,2112,700,16216,-928,-93,218,0,0
53.38332,2148,716,16132,-928,-155,162,0,0
53.38332,1960,852,15996,-896,-131,-30,0,0
53.43314,1952,716,16068,-912,-128,-67,0,0
53.48294,2036,680,16332,-928,-136,18,0,0
53.48294,2028,700,16276,-928,-86,59,0,0
53.53275,1980,636,16168,-944,-106,90,0,0
53.56596,1904,768,16256,-928,-30,184,0,0
53.58256,2080,732,16244,-928,65,263,0,0
53.61577,2032,872,16240,-928,67,347,0,0
53.64898,2104,764,16060,-912,-79,271,0,0
53.66558,1972,860,15956,-928,-122,-50,0,0
53.71539,2184,772,16104,-896,-142,-196,0,0
53.73199,2212,752,16216,-912,-155,-190,0,0
53.73199,1980,796,16240,-912,-134,-57,0,0
53.7984,2160,760,16168,-896,-112,94,0,0
53.83161,2112,832,15956,-912,-150,92,0,0
53.86481,1952,784,16032,-896,-105,153,0,0
53.88142,2056,840,16376,-912,16,355,0,0
53.98104,2236,596,16168,-928,-31,255,0,0
53.99764,2072,612,16000,-928,-135,209,0,0
53.99764,2012,724,16128,-912,-21,66,0,0
54.06405,2140,768,16100,-912,-45,5,0,0
54.06405,2172,844,16148,-896,-143,-26,0,0
54.09683,2052,640,16212,-928,-225,69,0,0
54.11343,2188,740,16260,-912,-245,-62,0,0
54.14664,2292,756,16148,-912,-182,-17,0,0
54.1964,2108,788,16320,-912,-80,107,0,0
54.1964,2184,624,16060,-928,-69,151,0,0
54.24618,2160,696,16192,-928,-141,167,0,0
54.24618,2188,748,16252,-896,-119,94,0,0
54.29597,2136,772,16168,-912,-5,274,0,0
54.32915,2176,648,16160,-912,-98,291,0,0
54.32915,2144,640,16076,-896,-87,255,0,0
54.36235,2100,636,16332,-928,48,372,0,0
54.41214,2048,716,15940,-912,96,229,0,0
54.42873,2176,772,16144,-912,61,171,0,0
54.46192,2252,676,16000,-912,-20,212,0,0
54.51171,2192,840,16044,-896,-59,-69,0,0
54.51171,2156,732,16120,-928,22,151,0,0
54.61128,2112,856,16064,-928,-38,149,0,0
54.64447,2092,620,16124,-928,-86,82,0,0
54.64447,2056,652,16108,-944,-27,42,0,0
54.69426,2100,792,15996,-880,-43,38,0,0
54.69426,2244,748,16008,-912,-107,188,0,0
54.74404,2196,728,16080,-896,-89,235,0,0
54.74404,2264,804,16084,-928,-29,147,0,0
54.77723,2156,948,15948,-896,-180,103,0,0
54.81042,2240,776,16148,-960,-182,57,0,0
54.81042,2200,844,16276,-944,-146,131,0,0
54.8768,2160,848,15984,-912,-161,11,0,0
54.8768,2200,776,16172,-880,-108,80,0,0
54.92659,2144,772,16120,-912,-86,195,0,0
54.95978,2108,668,16212,-928,-99,236,0,0
55.00956,2236,708,16112,-896,-89,174,0,0
55.00956,2204,776,16120,-960,-66,179,0,0
55.05935,2148,788,16024,-928,-156,137,0,0
55.05935,2000,644,16192,-928,-150,63,0,0
55.09254,2260,648,16132,-912,-60,117,0,0
55.14233,2092,888,15992,-928,-119,225,0,0
55.14233,2100,640,15964,-928,-180,175,0,0
55.24185,2312,584,16236,-912,-127,206,0,0
55.27509,2348,832,16356,-928,97,416,0,0
55.32487,2016,816,16056,-944,64,282,0,0
55.40786,2272,700,16108,-928,-145,-58,0,0
55.42445,2132,668,16080,-896,-179,-167,0,0
55.54062,2268,660,16320,-960,-64,-90,0,0
55.55721,2256,672,16320,-912,-103,-46,0,0
55.64019,2240,628,16280,-880,-12,27,0,0
55.64019,2160,704,16104,-944,58,44,0,0
55.72317,2148,656,16012,-896,-31,45,0,0
55.72317,2104,712,16108,-912,-61,-45,0,0
55.85593,2144,660,15824,-928,147,-270,0,0
55.87253,2316,584,16216,-896,110,-323,0,0
55.95551,2580,1292,16256,-928,-10,-298,0,0
56.03848,2368,916,16168,-912,-145,-118,0,0
56.03848,2284,660,16036,-896,-141,-13,0,0
56.08827,2384,632,16176,-912,-169,208,0,0
56.08827,2268,688,16024,-928,-70,333,0,0
56.12146,2380,716,16012,-896,-121,247,0,0
56.12146,2320,856,16248,-928,-60,228,0,0
56.17125,2388,680,16116,-912,-74,203,0,0
56.18784,2268,640,16084,-944,-111,118,0,0
56.22103,2316,760,16016,-928,-160,-90,0,0
56.22103,2416,780,16220,-912,-134,80,0,0
56.27082,2352,820,16208,-928,-143,91,0,0
56.30401,2420,744,16332,-928,-83,296,0,0
56.30401,2396,724,16256,-912,-47,121,0,0
56.35416,2448,732,16244,-912,-7,142,0,0
56.35416,2412,724,16356,-928,35,18,0,0
56.40394,2524,712,16016,-912,-78,184,0,0
56.40394,2208,632,15996,-928,-45,241,0,0
56.45377,2504,532,16320,-912,3,309,0,0
56.45377,2248,756,16072,-928,-46,255,0,0
56.50358,2332,828,16116,-896,-164,140,0,0
56.50358,2256,784,16152,-944,-154,101,0,0
56.55339,2300,752,16116,-912,-140,130,0,0
56.55339,2380,852,16212,-944,-133,125,0,0
56.56999,2396,804,16160,-928,-115,75,0,0
56.6364,2436,708,16296,-944,-31,49,0,0
56.6364,2364,656,16148,-928,-43,191,0,0
56.66961,2384,732,16128,-912,-10,244,0,0
56.66961,2272,724,15940,-896,-23,310,0,0
56.71941,2368,640,15952,-928,-108,138,0,0
56.71941,2396,740,16216,-912,-38,208,0,0
56.75262,2388,708,15932,-928,-13,98,0,0
56.75262,2436,764,16132,-944,9,259,0,0
56.80243,2376,692,16040,-928,25,327,0,0
56.81903,2256,796,15992,-896,29,231,0,0
56.85224,2424,732,16140,-912,-67,342,0,0
56.85224,2216,756,16004,-928,-109,42,0,0
56.90204,2396,680,16304,-912,-69,71,0,0
56.93525,2336,636,15864,-896,-38,211,0,0
56.93525,2380,628,16116,-880,-61,169,0,0
56.98505,2364,700,16156,-912,-38,177,0,0
56.98505,2244,824,15960,-912,-114,173,0,0
57.03487,2348,900,16104,-880,-238,26,0,0
57.03487,2368,828,16208,-912,-101,65,0,0
57.06807,2380,840,16272,-912,-84,170,0,0
57.06807,2272,852,16240,-880,-9,120,0,0
57.13448,2272,688,15968,-896,62,213,0,0
57.13448,2260,712,16064,-928,-16,213,0,0
57.16768,2376,772,16236,-928,-87,274,0,0
57.16768,2392,692,16024,-928,-67,236,0,0
57.21749,2324,784,15960,-928,-93,141,0,0
57.25069,2332,728,15980,-912,-86,170,0,0
57.2673,2360,640,15992,-896,-135,121,0,0
57.3005,2332,844,16204,-912,-110,218,0,0
57.3005,2320,800,16132,-928,-108,152,1,0
57.35031,2336,832,16132,-944,-69,183,1,0
57.35031,2328,792,16284,-912,-82,162,1,0
57.40012,2212,724,16028,-960,-104,152,1,0
57.40012,2388,544,16036,-928,-99,99,1,0
57.43332,2272,796,16232,-928,-74,305,1,0
57.44992,2264,644,16160,-912,-26,289,1,0
57.48313,2452,668,16132,-928,36,243,1,0
57.53293,2292,764,16064,-944,4,156,1,0
57.53293,2144,760,15980,-944,-95,45,1,0
57.56614,2172,684,16244,-912,-109,114,1,0
57.58274,2280,784,16072,-912,-122,220,1,0
57.66575,2256,816,16088,-912,-39,143,1,0
57.66575,2480,784,16092,-880,-24,166,1,0
57.66575,2216,792,15968,-896,-56,265,1,0
57.71556,2272,684,16092,-928,-36,250,1,0
57.74877,2352,776,16228,-928,27,239,1,0
57.74877,2212,864,16124,-912,-42,200,1,0
57.79857,2316,768,15940,-912,-24,224,1,0
57.81517,2300,732,16068,-928,-68,195,1,0
57.86498,2256,792,16156,-880,-41,213,1,0
57.86498,2256,784,16092,-928,-42,250,1,0
57.89819,2272,872,16144,-896,66,250,1,0
57.94799,2092,856,16080,-912,68,218,1,0
57.94799,2268,736,16356,-896,55,297,1,0
57.9978,2100,812,16204,-912,226,521,1,0
57.9978,2164,836,16136,-912,278,810,1,0
58.04761,2260,852,16028,-896,282,591,1,0
58.08082,2192,912,16112,-896,224,591,1,0
58.08082,2256,904,16008,-896,282,385,1,0
58.13062,2168,948,15968,-912,307,134,1,0
58.13062,2020,1056,16232,-928,260,285,1,0
58.18043,1972,1112,16080,-944,71,386,1,0
58.18043,2128,1136,16056,-912,83,358,1,0
58.26344,1908,1068,16168,-912,-44,444,1,0
58.26344,2000,1012,16036,-896,-216,180,1,0
58.31325,2028,1028,16040,-912,-287,124,1,0
58.34645,2076,732,16252,-912,-428,112,1,0
58.49588,2092,852,16244,-912,-164,41,1,0
58.49588,2128,888,16152,-960,-269,225,1,0
58.57889,2036,1080,15952,-896,-30,454,1,0
58.57889,1824,932,16104,-944,-326,67,1,0
58.6619,2188,888,16028,-880,-255,-64,1,0
58.6785,2128,1056,16292,-928,-216,117,1,0
58.71171,2148,824,16224,-896,-262,-14,1,0
58.71171,1920,1160,16352,-928,-102,467,1,0
58.81133,1808,644,15968,-928,-425,-24,1,0
58.94415,2012,1016,16096,-912,-6,83,1,0
58.94415,1668,1092,16056,-928,-429,-196,1,0
58.97735,2240,828,16224,-912,-473,-595,1,0
58.99395,2288,528,16356,-880,-570,-69,1,0
59.07697,1968,612,16072,-944,-580,-155,1,0
59.07697,2576,616,15900,-928,-72,96,1,0
59.12677,2128,888,16168,-896,-26,570,1,0
59.12677,1932,772,16152,-928,-385,-62,1,0
59.20979,2208,772,16160,-912,-379,-222,1,0
59.2596,2252,752,16152,-912,-521,-160,1,0
59.2596,2400,664,16208,-896,-176,89,1,0
59.2928,2308,764,16080,-928,-181,-139,1,0
59.3094,2212,680,16096,-896,-225,0,1,0
59.34261,2188,700,16116,-896,-324,-230,1,0
59.34261,2180,896,16200,-896,-657,-509,1,0
59.39241,1712,1248,15996,-896,-1776,-1367,1,0
59.39241,2996,-300,16004,-896,-1371,-1546,1,0
59.42562,2820,360,16268,-912,-94,-111,1,0
59.47543,2552,244,16552,-912,-92,157,1,0
59.47543,2664,480,15940,-928,-319,-5,1,0
59.57504,2508,636,15756,-912,-275,12,1,0
59.57504,2448,420,15972,-896,-418,-313,1,0
59.65805,2732,188,16080,-912,-350,-529,1,0
59.65805,2860,472,16176,-912,-163,-69,1,0
59.75767,2556,164,16244,-912,-273,2,1,0
59.75767,2656,588,16212,-912,-122,-49,1,0
59.79087,2976,92,16128,-912,135,95,1,0
59.80748,2596,332,16008,-912,-44,448,1,0
59.84068,2536,408,15928,-928,-5,89,1,0
59.84068,2380,372,16028,-912,-152,-272,1,0
59.89049,2868,308,15872,-928,-146,-234,1,0
59.92369,2728,472,16124,-912,77,-34,1,0
59.9403,2772,504,15868,-928,-53,-152,1,0
59.9735,2720,388,16044,-944,21,-213,1,0
59.9735,3064,416,16160,-912,3,6,1,0
60.02331,2820,400,16140,-896,-136,336,1,0
60.02331,2844,284,15888,-896,-119,275,1,0
60.07312,2640,488,15972,-912,79,178,1,0
60.07312,2708,460,16004,-912,-208,-36,1,0
60.10632,2720,548,16168,-896,-151,-42,1,0
60.10632,2856,296,16168,-912,-180,222,1,0
60.15613,2712,456,15808,-928,-89,-46,1,0
60.18933,2568,560,15704,-896,-618,-478,1,0
60.20594,3116,168,16052,-912,-228,-717,1,0
60.22255,3176,440,16352,-896,-232,242,1,0
60.22255,2692,160,15964,-912,-170,367,1,0
60.28895,2580,448,15972,-896,-238,-172,1,0
60.28895,3128,124,16008,-912,-74,-353,1,0
60.33876,3016,488,15944,-896,-187,-84,1,0
60.33876,2780,472,15952,-912,-529,-304,1,0
60.38857,2812,264,15972,-928,-585,-782,1,0
60.42177,3540,108,16432,-880,67,-227,1,0
60.42177,3208,260,16184,-896,-17,179,1,0
60.47158,3028,508,15964,-896,-278,116,1,0
60.47158,2960,268,15768,-896,-357,-171,1,0
60.52139,3164,248,16012,-928,-101,-170,1,0
60.55459,3144,208,16216,-928,-116,-150,1,0
60.5712,3128,356,15688,-912,-390,-234,1,0
60.5878,3148,288,15972,-912,-330,-367,1,0
60.5878,3304,192,15768,-912,-375,-285,1,0
60.65421,3136,116,16264,-928,-172,-149,1,0
60.65421,3204,256,16000,-912,-317,-218,1,0
60.6708,3404,268,16076,-912,-64,149,1,0
60.68724,3280,104,15992,-912,-54,57,1,0
60.73722,3300,404,15904,-944,-42,-78,1,0
60.73722,3212,56,15868,-912,-190,-37,1,0
60.78702,3288,244,16028,-928,81,78,1,0
60.78702,3468,192,16084,-912,-111,60,1,0
60.87004,3464,0,15956,-928,-140,113,1,0
60.88664,3324,200,15884,-912,32,180,1,0
60.90324,3204,412,15912,-928,-101,182,1,0
60.90324,3320,220,15940,-896,-195,-79,1,0
60.96965,3576,96,15888,-944,-93,77,1,0
60.96965,3524,300,16084,-912,34,228,1,0
61.01946,3076,212,16000,-928,-70,470,1,0
61.01946,3244,148,15756,-960,-232,-87,1,0
61.05267,3648,32,16088,-928,151,157,1,0
61.10247,3468,132,15980,-928,17,564,1,0
61.10247,3080,324,15772,-944,-41,185,1,0
61.18549,3232,264,15952,-928,-231,-193,1,0
61.20208,3436,132,16128,-896,-71,99,1,0
61.23529,3408,280,16052,-880,-2,265,1,0
61.23529,3276,284,15876,-960,-61,301,1,0
61.2851,3200,176,15824,-880,-56,170,1,0
61.2851,3360,220,15952,-928,-130,-32,1,0
61.31831,3340,396,15928,-896,-173,190,1,0
61.33491,3328,156,15908,-912,-248,-14,1,0
61.36811,3236,176,16036,-912,17,66,1,0
61.41792,3296,264,16004,-928,18,194,1,0
61.45113,3372,144,15808,-928,-78,233,1,0
61.46773,3404,368,15892,-896,-39,24,1,0
61.50094,3344,184,16136,-912,46,335,1,0
61.51754,3228,72,16108,-912,74,464,1,0
61.60056,3328,388,16024,-912,13,362,1,0
61.60056,3256,364,15700,-928,-26,245,1,0
61.63376,3308,120,15756,-912,-128,148,1,0
61.65036,3012,368,16036,-912,-128,-157,1,0
61.73338,3540,96,16172,-912,-237,-24,1,0
61.76651,3404,152,16080,-912,108,437,1,0
61.76651,3072,280,15880,-944,-21,299,1,0
61.86619,3124,324,16036,-928,-134,-93,1,0
61.86619,3492,264,16028,-928,-166,-83,1,0
61.89939,3488,152,16008,-912,-24,153,1,0
61.89939,3336,288,15984,-896,-53,151,1,0
61.99901,3380,304,15924,-928,-83,174,1,0
62.04882,3204,260,15992,-896,-306,341,1,0
62.04882,3316,76,15976,-912,-98,233,1,0
62.13183,3240,368,15976,-960,2,188,1,0
62.13183,3368,88,15928,-912,-131,64,1,0
62.18164,3300,208,15876,-896,13,219,1,0
62.18164,3328,108,15828,-896,-69,61,1,0
62.26466,3332,148,15984,-912,303,-78,1,0
62.28126,3476,556,16272,-880,273,413,1,0
62.31446,3136,296,15700,-896,-17,377,1,0
62.31446,3128,444,15796,-928,-140,-76,1,0
62.36427,3456,300,16068,-912,-251,-17,1,0
62.36427,3456,104,15916,-912,-173,207,1,0
62.41407,3336,332,16072,-928,-64,295,1,0
62.44728,3156,356,15920,-928,-94,129,1,0
62.44728,3432,16,15868,-896,-136,171,1,0
62.48049,3220,144,16048,-928,21,154,1,0
62.48049,3528,164,16060,-896,122,167,1,0
62.54689,3268,456,15712,-928,-119,461,1,0
62.54689,3188,276,15936,-928,-76,96,1,0
62.5801,3404,408,16028,-896,57,160,1,0
62.62991,3212,332,15936,-896,-266,223,1,0
62.67971,3328,328,15856,-912,-70,62,1,0
62.67971,3216,396,15976,-896,-196,308,1,0
62.76272,3164,324,15768,-864,-222,156,1,0
62.76272,3292,44,15992,-912,-120,-6,1,0
62.81253,3324,148,15968,-896,-41,234,1,0
62.81253,3128,432,16044,-928,-234,106,1,0
62.89554,3276,252,15920,-896,-145,62,1,0
62.89554,3448,120,16064,-896,2,261,1,0
62.94535,3156,284,15868,-928,-108,284,1,0
62.94535,3188,244,15888,-912,-68,87,1,0
63.04496,3244,316,16004,-912,-316,142,1,0
63.04496,3288,328,15984,-896,-9,8,1,0
63.07816,3740,204,15952,-944,2,282,1,0
63.16117,3168,296,15844,-928,-114,345,1,0
63.17778,3004,400,15888,-912,-209,-52,1,0
63.21098,3368,284,16296,-912,-127,26,1,0
63.21098,3280,28,16068,-896,-86,288,1,0
63.24419,3276,296,15844,-928,-102,219,1,0
63.24419,3252,308,15776,-928,2,101,1,0
63.3106,3664,72,16000,-928,-123,204,1,0
63.3106,3124,124,16016,-944,171,497,1,0
63.3438,3100,364,16020,-912,3,197,1,0
63.3438,3104,480,15848,-928,29,240,1,0
63.44341,3160,308,15868,-912,-230,142,1,0
63.57623,3248,440,15980,-896,-137,78,1,0
63.57623,3152,332,16184,-928,-157,193,1,0
63.62604,3424,264,16032,-912,-108,154,1,0
63.62604,3440,164,16100,-912,-82,320,1,0
63.65924,3224,288,15736,-912,-185,331,1,0
63.79206,3192,136,15768,-928,-202,61,1,0
63.80867,3268,284,15968,-944,-264,143,1,0
63.89168,3364,244,16052,-912,-255,80,1,0
63.89168,3312,132,16188,-912,13,366,1,0
64.0245,3048,272,15908,-896,-108,507,1,0
64.0245,3160,264,15880,-912,40,64,1,0
64.12411,3196,400,16080,-928,-288,146,1,0
64.12411,3192,252,15904,-912,-72,133,1,0
64.20713,3268,92,16020,-912,-229,159,1,0
64.20713,3100,376,16040,-928,66,222,1,0
64.25694,3280,288,15832,-912,-73,192,1,0
64.33995,3384,136,15792,-912,-156,238,1,0
64.33995,3344,240,15720,-896,-41,132,1,0
64.38976,3036,176,16168,-896,-247,88,1,0
64.38976,3452,-88,15896,-928,-23,21,1,0
64.42296,3152,272,15856,-912,41,306,1,0
64.43957,3312,144,15892,-928,-133,207,1,0
64.47277,2936,320,16092,-896,-141,47,1,0
64.47277,3308,56,15948,-896,-172,-22,1,0
64.52258,3056,492,16060,-928,-112,15,1,0
64.52258,3164,144,16136,-912,-400,-72,1,0
64.57239,3248,272,15896,-896,113,477,1,0
64.57239,3232,208,15716,-928,-42,380,1,0
64.60559,3176,376,16136,-944,-119,532,1,0
64.6554,2988,260,15892,-928,-4,197,1,0
64.6554,3300,104,15936,-912,-84,-9,1,0
64.70521,2984,448,15972,-896,-96,36,1,0
64.70521,3432,196,16032,-880,-168,-81,1,0
64.73833,3452,-16,15940,-928,81,337,1,0
64.75501,3120,420,15884,-944,-93,275,1,0
64.78822,3376,132,15964,-912,-133,159,1,0
64.78822,3204,4,15916,-928,-31,324,1,0
64.82142,3212,212,15840,-928,30,269,1,0
64.83803,3236,168,15856,-928,35,39,1,0
64.88783,3108,140,16108,-896,70,419,1,0
64.88783,2924,400,16016,-896,-101,107,1,0
64.92104,3136,276,15812,-896,-200,24,1,0
64.97085,3712,-32,15924,-960,171,226,0,0
64.97085,3072,436,16144,-928,-108,337,0,0
65.00405,3252,352,15848,-896,-135,-23,0,0
65.02065,3176,380,16028,-896,-180,227,0,0
65.05386,3312,148,15928,-896,-93,148,0,0
65.05386,3152,168,15928,-880,-125,96,0,0
65.10367,3224,260,16020,-896,-234,121,0,0
65.10367,3276,156,15876,-944,-80,120,0,0
65.15347,3028,200,16072,-880,-83,168,0,0
65.15347,3188,232,15972,-912,-61,35,0,0
65.20329,3296,156,15988,-880,-127,79,0,0
65.23648,3232,188,15928,-912,-139,126,0,0
65.23648,3148,188,15968,-864,45,127,0,0
65.28629,3236,232,15980,-912,-153,191,0,0
65.28629,3040,296,15876,-896,-213,76,0,0
65.33611,3212,220,16252,-912,-119,-26,0,0
65.33611,3484,68,16112,-880,96,386,0,0
65.35271,3120,392,15768,-880,-105,225,0,0
65.36931,3028,412,15804,-912,-300,-9,0,0
65.41911,3400,40,16052,-912,-85,120,0,0
65.41911,3456,64,15924,-912,-51,176,0,0
65.46892,3300,208,15692,-880,-107,235,0,0
65.50212,3012,320,15828,-912,-107,49,0,0
65.51873,3428,-116,16052,-912,-276,89,0,0
65.55193,3084,240,16028,-896,-123,117,0,0
65.55193,3460,44,16144,-928,-8,120,0,0
65.60174,3272,196,16076,-912,238,485,0,0
65.60174,2968,296,15932,-896,-120,261,0,0
65.63494,3364,192,15972,-912,154,38,0,0
65.63494,3272,140,16048,-944,-17,450,0,0
65.70135,3248,276,16108,-896,226,538,0,0
65.70135,3140,236,15820,-912,3,438,0,0
65.71796,3052,340,15844,-912,-14,105,0,0
65.71796,3384,52,16080,-912,209,281,0,0
65.78436,3204,168,16036,-912,232,748,0,0
65.81757,3244,160,15880,-928,225,790,0,0
65.83418,3000,408,15992,-944,127,675,0,0
65.86738,3040,428,15996,-928,33,529,0,0
65.86738,3068,328,16128,-912,89,491,0,0
65.88398,3096,272,16128,-912,194,786,0,0
65.90058,2824,416,15912,-928,130,981,0,0
65.95039,2876,340,15892,-896,110,866,0,0
65.95039,2704,400,15932,-912,120,786,0,0
66.0002,2840,300,16196,-928,336,527,0,0
66.0168,2872,532,16092,-896,409,1036,0,0
66.0334,2584,440,16168,-896,126,902,0,0
66.05,2568,404,16064,-912,121,540,0,0
66.08288,2712,564,16084,-912,120,578,0,0
66.13302,2724,408,16000,-864,89,543,0,0
66.14962,2572,592,16132,-896,111,669,0,0
66.16622,2416,544,15952,-928,-90,467,0,0
66.18282,2556,360,16284,-912,-23,372,0,0
66.21602,2648,372,16264,-944,55,486,0,0
66.21602,2492,528,16044,-944,25,696,0,0
66.26583,2416,628,15924,-896,40,436,0,0
66.29903,2392,556,15936,-928,-213,177,0,0
66.31564,2612,480,15960,-912,-101,122,0,0
66.34885,2524,500,16172,-896,-77,267,0,0
66.39865,2652,360,16292,-928,148,443,0,0
66.44846,2404,680,16156,-928,97,753,0,0
66.44846,2236,564,15924,-896,-25,645,0,0
66.48167,2520,456,15988,-896,134,534,0,0
66.49827,2324,536,16148,-944,258,498,0,0
66.53147,2436,616,16156,-912,174,540,0,0
66.58128,2424,588,16184,-896,356,779,0,0
66.58128,2224,684,16224,-896,417,1165,0,0
66.63109,2124,616,16384,-912,82,1354,0,0
66.63109,1896,644,15888,-912,183,984,0,0
66.7141,2068,684,15896,-912,182,415,0,0
66.7141,2092,692,16316,-928,247,420,0,0
66.76391,2112,776,16124,-912,222,537,0,0
66.78051,2040,544,16004,-928,264,564,0,0
66.79712,1948,740,15952,-912,324,602,0,0
66.84692,1880,932,16148,-864,136,210,0,0
66.84692,2120,840,16240,-912,-102,140,0,0
66.89673,2044,684,16252,-896,17,271,0,0
66.89673,1944,776,16084,-880,86,278,0,0
66.92993,1904,756,16144,-896,103,310,0,0
67.02954,1828,956,16180,-928,-158,321,0,0
67.02954,1872,644,16200,-896,-200,65,0,0
67.07935,2084,616,16252,-912,24,526,0,0
67.07935,1780,624,15984,-912,11,602,0,0
67.12916,1716,704,16020,-896,107,318,0,0
67.12916,1840,884,16320,-912,-86,41,0,0
67.21217,2228,752,16256,-896,51,301,0,0
67.21217,1932,776,16284,-880,185,662,0,0
67.26198,1908,1080,16152,-896,356,947,0,0
67.26198,1748,924,16124,-896,81,797,0,0
67.29518,1816,948,16104,-928,-61,480,0,0
67.29518,1656,920,16112,-912,69,596,0,0
67.34499,1692,1060,16320,-912,65,458,0,0
67.3782,1544,808,16036,-896,-275,169,0,0
67.3948,1972,840,16376,-880,30,337,0,0
67.428,1816,768,16380,-928,4,672,0,0
67.428,1612,900,16088,-880,45,672,0,0
67.47781,1456,776,16160,-912,-14,602,0,0
67.52762,1260,816,16044,-896,-335,-35,0,0
67.52762,1792,712,16348,-928,-106,120,0,0
67.56082,1712,824,16280,-912,208,449,0,0
67.57742,1464,988,16020,-912,102,461,0,0
67.61061,1388,940,15992,-896,-99,152,0,0
67.66044,1688,840,16288,-896,-138,-152,0,0
67.66044,1748,924,16364,-896,96,308,0,0
67.71024,1744,972,16360,-928,456,487,0,0
67.71024,1496,1008,16200,-896,-30,266,0,0
67.74345,1576,1268,16292,-912,-179,138,0,0
67.79326,1816,696,16220,-944,-102,87,0,0
67.79326,1668,864,16036,-912,125,176,0,0
67.84306,1412,1008,16152,-928,-229,-38,0,0
67.87627,1496,868,16188,-912,-305,-304,0,0
67.92608,1556,840,15944,-928,-37,-816,0,0
67.92608,1692,712,16160,-928,426,-1030,0,0
67.97589,1616,808,16332,-912,269,-554,0,0
68.00909,1580,996,16332,-912,-25,-348,0,0
68.0257,1868,956,16244,-912,-220,-120,0,0
68.0589,1820,972,16220,-928,-288,160,0,0
68.0921,1796,988,16100,-912,-320,125,0,0
68.0921,1996,1752,15956,-912,88,-7,0,0
68.15852,2028,1140,16104,-912,-97,-24,0,0
68.19172,1884,976,15984,-944,-142,37,0,0
68.20833,1828,1020,16120,-928,-77,15,0,0
68.24153,2024,892,16368,-896,-156,120,0,0
68.29134,1884,880,15980,-896,-174,179,0,0
68.29134,1872,736,16036,-912,-166,131,0,0
68.34114,1900,840,16040,-928,-154,96,0,0
68.37435,1904,884,16108,-912,-230,29,0,0
68.37435,1952,764,16224,-912,-167,-37,0,0
68.42416,1968,904,16132,-928,-154,149,0,0
68.45736,1824,1016,16088,-928,-186,131,0,0
68.45736,1916,904,16092,-912,-112,88,0,0
68.50717,1916,900,16236,-896,24,114,0,0
68.52377,1972,728,16204,-912,122,486,0,0
68.52377,1760,844,16048,-928,85,586,0,0
68.57358,1792,804,16000,-896,21,166,0,0
68.62339,1964,880,16164,-928,-105,-11,0,0
68.62339,1928,832,16280,-896,-119,148,0,0
68.6732,1924,968,16288,-912,-128,77,0,0
68.73962,1852,896,16080,-912,-118,212,0,0
68.73962,1892,940,16112,-928,-140,81,0,0
68.77281,1968,924,16164,-912,-103,47,0,0
68.80602,1892,832,16312,-928,-50,16,0,0
68.80602,1928,936,16380,-912,25,205,0,0
68.85583,1888,888,16072,-896,102,316,0,0
68.90563,1932,908,15912,-896,-38,296,0,0
68.93884,1908,948,16088,-928,-157,-18,0,0
68.93884,1892,944,16256,-928,-193,-112,0,0
68.95544,2004,736,16232,-928,-187,92,0,0
69.03846,1948,900,16396,-896,-116,148,0,0
69.05506,1896,936,15964,-912,-124,155,0,0
69.10487,1916,980,16268,-912,-144,109,0,0
69.12147,1956,936,16188,-928,-160,54,0,0
69.13808,1964,988,16188,-912,-186,77,0,0
69.18788,1836,916,15988,-912,-251,148,0,0
69.22109,1884,968,16072,-896,-290,128,0,0
69.22109,2108,780,16108,-928,-212,165,0,0
69.2875,1900,768,16204,-944,-132,170,0,0
69.3207,1992,888,16224,-880,-76,204,0,0
69.40372,1884,752,16272,-896,-49,257,0,0
69.45352,1864,792,16212,-880,-134,179,0,0
69.45352,1920,764,16300,-880,-149,175,0,0
69.55314,1972,700,16328,-928,-105,352,0,0
69.63615,1864,856,16364,-912,-197,467,0,0
69.63615,1892,908,16184,-896,-235,468,0,0
69.68596,1988,868,16168,-896,-221,222,0,0
69.68596,1880,884,16224,-944,-171,208,0,0
69.71916,1912,840,16192,-912,-153,93,0,0
69.71916,1880,876,15984,-928,-119,26,0,0
69.76897,1924,688,16296,-896,-82,70,0,0
69.76897,1904,728,16344,-896,-94,68,0,0
69.81878,2028,520,16232,-896,-376,-124,0,0
69.81878,1776,996,16096,-896,-301,70,0,0
69.90179,2004,740,16292,-896,-134,285,0,0
69.90179,2048,616,16104,-912,9,264,0,0
69.9516,1908,1000,16028,-896,-29,11,0,0
69.9516,1796,900,16008,-912,-197,-86,0,0
70.0014,2072,660,16224,-912,-169,79,0,0
70.0014,1904,612,16184,-912,-153,173,0,0
70.03461,1992,644,15988,-928,-126,12,0,0
70.08442,2084,724,16224,-912,-114,-34,0,0
70.08442,1892,760,16024,-896,-166,111,0,0
70.11762,1784,752,16048,-912,-207,70,0,0
70.13422,2072,732,16332,-880,-96,188,0,0
70.16743,1980,624,16100,-896,-98,205,0,0
70.18404,1952,744,16196,-928,-100,192,0,0
70.21724,1912,784,16204,-896,-173,121,0,0
70.21724,1904,672,16132,-912,-127,52,0,0
70.25044,2168,688,16224,-912,-122,210,0,0
70.26704,2052,660,15996,-896,-148,-41,0,0
70.30025,2048,692,16248,-896,-107,66,0,0
70.31686,1856,632,16160,-928,-72,43,0,0
70.35007,2024,620,16108,-896,-56,280,0,0
70.39986,2056,732,16224,-880,-57,163,0,0
70.39986,2052,648,16196,-944,-72,103,0,0
70.43307,2044,732,16148,-896,-59,157,0,0
70.43307,2128,688,16312,-880,-25,287,0,0
70.48288,1944,960,16348,-896,-194,139,0,0
70.53269,2056,688,16304,-880,-171,34,0,0
70.53269,1996,796,16160,-928,-156,62,0,0
70.5825,2044,772,16220,-896,-176,158,0,0
70.5825,2120,720,16140,-880,-206,80,0,0
70.6323,1992,676,16216,-912,-145,49,0,0
70.6489,2140,580,16224,-864,-92,261,0,0
70.66551,1960,656,16280,-928,-129,328,0,0
70.71532,2060,664,16180,-912,-30,222,0,0
70.71532,2004,712,16180,-896,-73,234,0,0
70.76512,2028,620,16156,-896,-143,124,0,0
70.79832,2032,636,16168,-880,-111,120,0,0
70.81493,1968,612,16192,-896,-95,163,0,0
70.84814,2044,716,16288,-928,-92,176,0,0
70.89795,2052,664,16056,-896,-40,179,0,0
70.89795,2032,708,16112,-912,-100,98,0,0
70.94775,2100,672,16140,-896,-111,141,0,0
70.98096,1936,744,16292,-912,-85,142,0,0
70.99756,1952,676,16152,-912,-82,109,0,0
71.03077,2072,620,16108,-928,-101,132,0,0
71.06397,1916,712,16100,-912,-69,164,0,0
71.08057,2024,676,16096,-896,-44,246,0,0
71.11378,1992,700,16060,-896,-157,166,0,0
71.16359,1996,740,16156,-896,-221,216,0,0
71.16359,2036,720,16284,-928,-221,432,0,0
71.21378,2104,516,16116,-880,-155,334,0,0
71.26361,1952,632,16140,-896,-71,145,0,0
71.29682,2052,556,16096,-864,-44,54,0,0
71.29682,2016,596,16216,-912,-22,130,0,0
71.34664,1908,528,16096,-896,-70,129,0,0
71.37985,2080,660,16376,-928,-68,143,0,0
71.39646,2160,692,16248,-912,-26,239,0,0
71.42966,1980,672,16036,-896,13,107,0,0
71.46288,2020,740,16344,-896,-20,93,0,0
71.46288,1964,668,16128,-896,-18,90,0,0
71.5293,2048,644,16200,-896,-67,108,0,0
71.5293,2032,684,16152,-896,-79,145,0,0
71.57912,2020,760,16200,-880,-165,84,0,0
71.61233,2008,656,16144,-912,-190,151,0,0
71.61233,1892,676,16184,-912,-118,79,0,0
71.66215,1968,576,16120,-880,-94,118,0,0
71.69536,1980,588,16180,-896,-106,215,0,0
71.71196,2192,716,16292,-896,-29,310,0,0
71.76178,2060,620,16068,-896,-34,181,0,0
71.79499,1976,720,16088,-912,-143,110,1,0
71.79499,1984,640,16148,-928,-144,195,1,0
71.87801,2048,700,16280,-896,-63,281,1,0
71.92783,2024,640,16104,-864,-19,181,1,0
71.92783,1876,692,16244,-912,-50,61,1,0
71.97765,1908,648,16152,-896,-39,127,1,0
72.01086,1964,624,16192,-928,-90,142,1,0
72.02746,1940,648,16192,-928,-2,246,1,0
72.06068,2044,608,16156,-896,-100,227,1,0
72.06068,1924,724,16168,-896,-127,164,1,0
72.11049,1992,612,16112,-912,-98,38,1,0
72.16031,1900,708,16340,-912,-50,107,1,0
72.16031,1964,712,16148,-944,-95,141,1,0
72.24333,2004,776,16196,-912,-65,136,1,0
72.25994,2088,708,16248,-880,-38,190,1,0
72.29315,1816,644,16096,-896,-75,169,1,0
72.29315,2092,644,16036,-864,-48,168,1,0
72.30975,2084,620,16092,-928,-60,76,1,0
72.37617,1912,696,16008,-896,-30,190,1,0
72.37617,1952,608,16140,-912,64,427,1,0
72.42599,1952,528,16292,-896,127,520,1,0
72.42599,2052,736,16280,-880,117,346,1,0
72.47581,1852,812,16092,-944,116,324,1,0
72.55918,1900,720,16048,-928,40,317,1,0
72.55918,1828,680,16424,-896,54,229,1,0
72.60906,1784,804,16368,-896,208,435,1,0
72.60906,1724,752,16348,-896,236,645,1,0
72.6423,1900,708,15848,-912,161,501,1,0
72.6423,1872,820,16216,-896,116,415,1,0
72.69213,1920,704,16140,-896,235,472,1,0
72.74198,1748,916,16224,-880,185,398,1,0
72.74198,1680,944,15936,-912,64,137,1,0
72.77521,1836,888,16104,-928,-76,-27,1,0
72.79182,1868,808,16284,-912,84,87,1,0
72.87489,1684,1232,16172,-896,-39,134,1,0
72.87489,1712,1076,16084,-912,-288,-20,1,0
72.90812,1960,548,16304,-928,-280,137,1,0
72.95796,1780,812,16232,-880,-495,29,1,0
72.95796,1956,820,16280,-912,-12,171,1,0
73.0078,1728,884,16060,-896,-175,161,1,0
73.0078,1752,808,16124,-912,-434,-192,1,0
73.04103,2344,520,16408,-896,113,83,1,0
73.04103,1924,748,16292,-880,98,527,1,0
73.09087,1608,928,16020,-912,-259,133,1,0
73.19055,2060,564,16200,-912,34,-300,1,0
73.19055,1792,928,16000,-864,122,215,1,0
73.24039,1656,996,16112,-896,-146,-27,1,0
73.24039,1876,840,16344,-912,-121,-151,1,0
73.27362,1984,692,16400,-912,28,-7,1,0
73.27362,2016,956,16300,-928,7,471,1,0
73.32346,1816,796,16128,-928,-174,137,1,0
73.32346,2092,528,16060,-912,-103,260,1,0
73.35651,1844,904,16084,-864,143,480,1,0
73.40654,1720,820,16312,-880,-96,85,1,0
73.40654,1840,900,16140,-896,13,121,1,0
73.45638,1784,792,16128,-928,-129,-21,1,0
73.45638,1900,900,16076,-896,-184,-136,1,0
73.50622,1968,964,16132,-880,59,84,1,0
73.55606,1884,792,16120,-896,-128,1,1,0
73.55606,1920,956,16172,-880,143,38,1,0
73.58929,1868,816,16044,-928,19,127,1,0
73.6059,1900,740,15988,-896,83,-6,1,0
73.63913,2016,856,16196,-912,281,-154,1,0
73.67207,1944,1088,16336,-912,111,89,1,0
73.67207,1692,896,16124,-928,-130,20,1,0
73.73882,1824,912,15928,-928,27,-352,1,0
73.75542,2196,964,16296,-928,-1,-134,1,0
73.77204,2056,984,16196,-896,-124,-19,1,0
73.82188,2148,1008,16224,-896,-72,-65,1,0
73.8551,1980,1020,16120,-896,-215,172,1,0
73.87157,1932,868,16060,-928,-400,-193,1,0
73.90495,2260,740,16340,-896,-9,-235,1,0
73.98801,2360,1136,16344,-896,401,748,1,0
74.0877,1604,880,16028,-912,-252,565,1,0
74.13754,1976,924,16076,-880,148,-17,1,0
74.13754,2132,1036,16240,-912,-151,68,1,0
74.22013,2172,928,16128,-896,-82,103,1,0
74.22013,1960,1008,16012,-928,-206,-21,1,0
74.30315,2088,912,16144,-912,-167,-104,1,0
74.31976,1924,1048,16100,-912,-383,-64,1,0
74.45262,1984,808,15944,-928,-713,-504,1,0
74.46923,2380,844,16316,-928,-12,-352,1,0
74.51906,2272,832,16232,-896,-197,-105,1,0
74.6187,2160,804,15992,-880,-176,-133,1,0
74.63531,2188,976,16196,-912,-113,-147,1,0
74.71835,2180,832,16112,-896,-263,-71,1,0
74.76817,2316,720,16116,-944,269,-275,1,0
74.76817,2520,876,16008,-912,-155,-137,1,0
74.80138,2492,712,15920,-896,35,-277,1,0
74.8512,2020,1148,16196,-928,267,-284,1,0
74.8512,2116,1092,16260,-928,-213,-271,1,0
74.90102,2400,776,16108,-912,-231,-259,1,0
74.90102,2484,680,16056,-896,-142,-168,1,0
74.95084,2472,852,16132,-896,45,14,1,0
74.95084,2208,972,16264,-912,-201,-146,1,0
74.96745,2748,644,16032,-896,64,-156,1,0
75.08371,2456,660,16100,-912,211,-51,1,0
75.16674,2708,580,16104,-944,-1,124,1,0
75.16674,2148,1200,15824,-896,143,92,1,0
75.26639,2188,1272,16028,-896,-556,-455,1,0
75.26639,2528,744,16192,-896,-446,-821,1,0
75.26639,2884,756,16296,-912,-191,-210,1,0
75.29961,2740,1012,16216,-880,42,273,1,0
75.34943,2512,1020,16076,-928,-114,115,1,0
75.34943,2408,840,16060,-944,-273,-65,1,0
75.38264,2484,988,16228,-880,-309,-21,1,0
75.39925,2740,644,16280,-896,-150,-16,1,0
75.48228,2784,936,16000,-912,-197,292,1,0
75.48228,2664,720,15964,-896,-294,97,1,0
75.5155,2700,840,16108,-880,-375,-155,1,0
75.5155,2664,936,16188,-928,-114,65,1,0
75.56532,2552,868,16088,-912,-236,71,1,0
75.56532,2632,772,16160,-944,-194,12,1,0
75.61514,2720,852,16024,-896,-17,-25,1,0
75.66496,2776,820,16232,-896,-172,47,1,0
75.66496,2764,776,16112,-880,-70,159,1,0
75.71479,2708,796,15872,-912,-71,59,1,0
75.71479,2820,856,16076,-928,-274,-68,1,0
75.748,2640,984,16008,-928,-52,401,1,0
75.76461,2580,952,15908,-880,-130,10,1,0
75.79782,2716,804,16060,-928,-76,23,1,0
75.79782,2616,880,16052,-928,-128,9,1,0
75.83104,2772,904,16016,-896,-31,126,1,0
75.83104,2592,708,15928,-912,-87,45,1,0
75.89747,2808,872,16080,-896,-65,-263,1,0
75.93068,2680,688,15796,-912,-262,59,1,0
75.93068,2636,772,15904,-896,-164,-266,1,0
75.9639,3112,716,16132,-896,-26,8,1,0
75.98051,2760,812,15708,-912,-113,106,1,0
76.03033,2808,772,15960,-928,-82,59,1,0
76.03033,2724,808,16132,-896,74,-132,1,0
76.06355,2780,1072,15968,-896,-375,186,1,0
76.06355,2736,656,16064,-896,-61,86,1,0
76.11336,2920,876,15944,-896,-124,40,1,0
76.11336,2740,620,16092,-912,-63,217,1,0
76.16319,2704,760,16056,-896,-15,102,1,0
76.16319,2948,592,15876,-912,-15,251,1,0
76.21301,2836,948,16132,-896,-32,145,1,0
76.24622,2708,876,16124,-896,-153,66,1,0
76.24622,2936,888,15996,-896,5,45,1,0
76.29604,2872,716,16172,-880,-88,284,1,0
76.29604,2876,784,15884,-896,-225,189,1,0
76.34586,2920,976,15940,-912,-54,19,1,0
76.34586,2908,988,16128,-896,121,193,1,0
76.4289,2876,948,16184,-896,-170,282,1,0
76.47872,2872,856,15864,-880,-39,104,1,0
76.47872,2804,952,16008,-880,-59,84,1,0
76.52854,2720,820,16008,-928,-242,192,1,0
76.52854,2760,660,16152,-912,-118,-192,1,0
76.56176,3032,724,15948,-896,62,221,1,0
76.56176,2764,800,15752,-896,-150,253,1,0
76.61158,2808,872,16040,-912,-48,82,1,0
76.61158,2892,900,16212,-896,21,159,1,0
76.66141,2752,1068,16232,-928,24,276,1,0
76.69462,2808,964,16040,-928,-105,124,1,0
76.69462,3024,780,15852,-928,-143,260,1,0
76.74445,2992,700,15824,-896,-47,83,1,0
76.74445,2876,988,16120,-896,-111,10,1,0
76.77766,2712,748,16172,-896,-194,359,1,0
76.79427,2724,768,15804,-912,-99,276,1,0
76.82748,2660,716,15904,-912,-183,172,1,0
76.82748,2860,776,15960,-912,-134,81,1,0
76.8773,2872,816,15960,-880,-149,217,1,0
76.8773,2668,868,16000,-880,-223,128,1,0
76.92712,2852,764,16028,-896,-287,-78,1,0
76.96033,2812,784,16144,-912,-177,127,1,0
76.97694,2992,816,16300,-896,-159,82,1,0
77.05998,2832,1008,15920,-928,14,461,1,0
77.05998,2460,1036,15936,-928,-461,-103,1,0
77.1098,2876,796,16092,-912,-395,-150,1,0
77.1098,3140,480,16040,-896,-116,185,1,0
77.24267,2548,804,16072,-896,-284,257,1,0
77.24267,2776,672,16036,-928,-230,-286,1,0
77.29248,3168,652,15996,-896,-71,135,1,0
77.3257,2868,856,15980,-896,-122,325,1,0
77.34231,2784,816,16112,-912,-221,143,1,0
77.35892,2972,740,16036,-928,-133,89,1,0
77.35892,2808,748,16016,-928,-249,140,1,0
77.42535,3124,660,15984,-896,19,66,1,0
77.42535,3064,824,16004,-912,-189,304,1,0
77.50838,2672,612,16044,-896,-47,184,1,0
77.50838,2508,1144,16212,-928,119,215,1,0
77.55804,2636,1008,16020,-928,-14,276,1,0
77.64124,3316,640,15888,-912,144,486,1,0
77.64124,2964,556,15736,-912,371,486,1,0
77.67445,2716,796,15816,-912,208,-7,1,0
77.69106,2632,1020,16256,-896,138,79,1,0
77.77409,2740,580,16060,-896,28,261,1,0
77.77409,2752,616,15972,-896,142,389,1,0
77.82392,2620,816,15848,-912,-95,10,1,0
77.82392,2760,928,15900,-912,-343,-100,1,0
77.92356,2884,700,16124,-896,-99,42,1,0
77.92356,2768,964,16224,-912,31,190,1,0
77.95677,2936,968,15904,-896,-197,197,1,0
78.08963,2764,948,15856,-912,-233,40,1,0
78.08963,2896,692,16000,-880,62,-111,1,0
78.18928,3136,924,16276,-928,-129,7,1,0
78.18928,2760,756,16020,-912,-81,295,1,0
78.2225,2512,1028,15964,-912,-98,-7,1,0
78.23911,2988,664,16116,-912,-106,30,1,0
78.27209,2968,752,15848,-928,-201,480,1,0
78.27209,2808,788,15980,-896,-77,236,1,0
78.32214,2964,716,15932,-864,-207,79,1,0
78.32214,2908,840,16088,-896,-203,165,1,0
78.40518,2804,668,15928,-896,-127,262,1,0
78.43839,2760,760,16020,-896,-60,146,1,0
78.455,2760,684,16056,-944,-23,317,1,0
78.50483,2792,800,16020,-928,-55,84,1,0
78.50483,2864,812,15956,-912,-92,166,1,0
78.53804,2948,680,16096,-912,-108,84,1,0
78.53804,2792,1008,16012,-896,-117,285,1,0
78.63769,2620,812,16028,-928,-163,66,1,0
78.63769,3160,708,16020,-896,-67,210,1,0
78.77,2916,832,16056,-912,-27,251,1,0
78.85297,2852,1004,16008,-928,-124,230,1,0
78.85297,2696,708,16008,-896,-55,-10,1,0
78.95255,2900,860,15968,-912,-68,145,1,0
78.95255,2888,624,16104,-928,-59,223,1,0
78.98573,2804,816,15944,-912,-170,113,1,0
79.00233,2808,708,16200,-880,16,70,1,0
79.0853,2804,928,16104,-880,-57,181,1,0
79.0853,2884,788,15980,-896,-163,244,1,0
79.1185,2720,832,15980,-896,-63,152,1,0
79.13509,2792,836,15968,-880,-157,31,1,0
79.16829,3048,740,16120,-928,-54,107,1,0
79.20147,3032,688,15908,-912,39,211,1,0
79.21807,2724,868,15932,-896,56,263,1,0
79.25126,2620,960,16116,-896,-192,187,1,0
79.26785,2856,632,16044,-912,-44,-18,1,0
79.35077,3124,692,16016,-928,-176,259,1,0
79.35077,2752,724,15936,-912,50,261,1,0
79.38402,3068,780,16200,-896,-11,223,1,0
79.38402,2856,836,16092,-896,-236,367,1,0
79.4504,2860,964,16028,-912,-129,90,1,0
79.4504,2996,596,15992,-896,-170,216,1,0
79.48359,2784,808,16036,-880,-198,110,1,0
79.50018,2980,528,16184,-928,-88,56,1,0
79.53337,2888,712,15984,-928,-156,159,1,0
79.58357,2776,840,16068,-928,3,349,1,0
79.58357,2780,760,15968,-912,-79,102,1,0
79.61676,2764,832,16032,-880,-123,18,1,0
79.63335,2860,720,16120,-896,-112,74,0,0
79.66654,3044,884,16148,-896,-53,221,0,0
79.68313,2680,880,16108,-912,-56,248,0,0
79.71631,2908,852,16144,-848,-115,-77,0,0
79.71631,3216,692,16036,-880,162,293,0,0
79.7495,2840,712,15956,-880,-25,309,0,0
79.7495,2912,840,16080,-928,-130,4,0,0
79.79929,2800,740,16008,-928,-183,213,0,0
79.84906,2828,748,15960,-944,-1,277,0,0
79.84906,2928,720,16072,-912,-117,181,0,0
79.88225,2888,896,16032,-928,-42,234,0,0
79.89885,2988,756,16220,-912,-252,197,0,0
79.94862,2760,680,16084,-912,-22,35,0,0
79.94862,2980,712,16232,-944,-72,249,0,0
79.98181,2808,836,16000,-896,-22,289,0,0
79.98181,2844,884,15976,-912,-184,76,0,0
80.0316,2736,768,16136,-912,-152,47,0,0
80.0316,3032,732,16040,-880,11,176,0,0
80.08138,2812,872,16048,-896,-116,286,0,0
80.08138,2804,832,15956,-880,2,145,0,0
80.13116,2792,916,15872,-880,-164,-28,0,0
80.14776,3028,652,16124,-896,-57,167,0,0
80.16435,2928,868,15972,-896,-14,307,0,0
80.19754,2608,960,15784,-912,-88,221,0,0
80.21413,2988,452,16248,-928,-134,-385,0,0
80.24732,3060,848,16024,-912,-18,336,0,0
80.24732,2548,932,15876,-896,-16,225,0,0
80.2971,3012,704,15948,-880,39,47,0,0
80.2971,3000,696,16128,-912,-16,290,0,0
80.34689,2776,800,16072,-896,208,228,0,0
80.39667,3104,896,16092,-928,154,320,0,0
80.39667,2884,804,15812,-880,42,410,0,0
80.43021,2768,688,15976,-912,-9,364,0,0
80.43021,2864,860,16036,-864,159,336,0,0
80.4468,2764,828,15972,-928,-177,392,0,0
80.46339,2772,696,15948,-896,-32,210,0,0
80.51321,2928,788,16032,-896,183,462,0,0
80.51321,2800,996,16228,-896,153,719,0,0
80.56301,2596,928,15856,-880,-87,723,0,0
80.57961,2896,672,16128,-880,225,270,0,0
80.59583,2740,1076,16164,-912,190,885,0,0
80.66261,2604,648,16072,-896,97,465,0,0
80.71241,2616,1116,16088,-896,146,632,0,0
80.71241,2732,796,16068,-944,148,693,0,0
80.74561,2464,856,16024,-912,47,641,0,0
80.74561,2600,1032,16140,-912,192,549,0,0
80.79541,2424,1052,16128,-880,55,685,0,0
80.79541,2504,864,16000,-912,-46,526,0,0
80.84521,2448,668,16048,-880,23,320,0,0
80.87841,2648,1056,16036,-912,448,308,0,0
80.87841,2188,1436,16264,-896,-24,565,0,0
80.92821,2228,980,15976,-912,-78,6,0,0
80.92821,2360,1168,16188,-896,-156,266,0,0
81.01121,2480,692,16020,-928,-124,16,0,0
81.061,2592,1068,16076,-896,-37,421,0,0
81.061,2344,852,16028,-928,-163,240,0,0
81.1108,2368,948,16184,-896,-42,172,0,0
81.1108,2484,924,16108,-896,116,348,0,0
81.1938,2156,1100,16040,-912,-174,136,0,0
81.1938,2608,724,15888,-880,8,-258,0,0
81.2436,2512,1096,16048,-880,160,215,0,0
81.2436,2328,1188,16064,-880,27,129,0,0
81.3432,2416,1008,16208,-928,-230,126,0,0
81.3432,2560,944,16356,-944,264,238,0,0
81.3764,2384,1164,16056,-912,87,479,0,0
81.3764,2104,1080,15968,-928,-258,255,0,0
81.47643,2512,872,16148,-896,20,-80,0,0
81.50964,2504,1072,16124,-896,9,405,0,0
81.50964,2200,940,16148,-912,-57,202,0,0
81.6091,2456,724,16036,-912,9,-56,0,0
81.6091,2512,1188,15920,-896,115,203,0,0
81.64229,2424,960,16292,-928,217,38,0,0
81.64229,2556,1308,16072,-928,143,320,0,0
81.74184,2360,1128,16180,-928,143,448,0,0
81.74184,2272,1192,16028,-880,-156,153,0,0
81.77502,2568,844,16000,-912,-50,136,0,0
81.77502,2552,1004,15912,-896,-5,336,0,0
81.87457,2120,1276,16120,-896,-76,244,0,0
81.92434,2556,1008,16212,-896,72,168,0,0
81.92434,2256,1096,16280,-896,-193,395,0,0
81.95752,2308,820,16052,-912,-4,243,0,0
81.97411,2404,1048,16148,-896,63,119,0,0
81.9907,2448,1228,16260,-896,-142,378,0,0
81.9907,2288,872,16092,-896,-153,54,0,0
82.05707,2416,1080,15784,-880,-49,-41,0,0
82.05707,2500,1008,16168,-896,61,134,0,0
82.09025,2364,1132,16264,-912,-118,364,0,0
82.09025,2428,1064,16152,-928,-58,249,0,0
82.14042,2448,1200,16108,-912,111,320,0,0
82.24002,2336,1164,16244,-864,103,519,0,0
82.24002,2276,1044,16188,-912,57,661,0,0
82.27322,2232,1204,16076,-912,-105,359,0,0
82.28982,2172,976,16048,-928,-92,248,0,0
82.37281,2300,1076,16160,-912,1,198,0,0
82.37281,2448,888,16160,-912,82,382,0,0
82.45581,2000,1180,16204,-912,-93,438,0,0
82.45581,2200,940,16072,-896,-150,-53,0,0
82.55541,2356,824,16244,-912,-237,162,0,0
82.57201,2920,520,16556,-880,1126,789,0,0
82.57201,1764,1716,16004,-912,622,1431,0,0
82.6384,1760,1536,15784,-912,-103,11,0,0
82.6384,2292,1104,15996,-896,66,-29,0,0
82.6882,2280,1196,16084,-896,120,107,0,0
82.7214,2104,1480,16176,-912,-51,173,0,0
82.738,2124,1148,16004,-896,-241,-17,0,0
82.77119,2064,1224,16056,-896,-422,-72,0,0
82.77119,2200,1100,16152,-912,-295,-234,0,0
82.82099,2236,1124,16044,-896,-139,-74,0,0
82.82099,2332,1180,16020,-896,-202,-52,0,0
82.87079,2140,1120,16040,-880,-312,-39,0,0
82.87079,2220,1112,16076,-896,-200,-43,0,0
82.90399,2392,1148,16076,-912,-119,-52,0,0
83.00359,2148,1232,16100,-880,-66,75,0,0
83.00359,2328,1092,16152,-912,-293,-138,0,0
83.03678,2408,1000,16156,-928,-289,-223,0,0
83.05338,2356,1168,16188,-912,-131,-107,0,0
83.13638,2396,1164,16296,-928,-200,-77,0,0
83.13638,2312,1160,16108,-912,-169,79,0,0
83.18617,2380,1140,15908,-896,-72,233,0,0
83.18617,2432,1156,16124,-896,-82,241,0,0
83.21938,2300,944,16012,-912,-198,157,0,0
83.26917,2380,1104,16164,-896,-181,-65,0,0
83.31897,2360,916,15884,-864,-110,9,0,0
83.31897,2328,1092,15956,-896,-110,179,0,0
83.35217,2488,1080,16104,-896,-180,95,0,0
83.36877,2500,936,15936,-928,-240,21,0,0
83.38537,2408,1188,16000,-928,-297,-9,0,0
83.40197,2496,1096,16044,-896,-273,-89,0,0
83.43517,2488,896,16172,-896,-177,-168,0,0
83.45177,2560,988,15904,-912,-142,20,0,0
83.50156,2392,896,16024,-928,-206,-89,0,0
83.50156,2604,1028,16228,-912,-161,-96,0,0
83.53476,2504,848,16204,-896,-174,37,0,0
83.58456,2480,884,16212,-880,-149,160,0,0
83.63436,2620,932,16080,-864,-146,110,0,0
83.63436,2564,908,16080,-912,-199,-42,0,0
83.66755,2592,1008,16112,-864,-130,-55,0,0
83.66755,2520,1036,16136,-928,-177,-45,0,0
83.71735,2572,904,16024,-928,-212,-115,0,0
83.76715,2660,1024,16056,-864,-187,-161,0,0
83.76715,2520,932,16236,-896,-103,58,0,0
83.85015,2600,1044,16000,-944,-165,118,0,0
83.85015,2720,884,16180,-912,-145,56,0,0
83.94975,2620,816,16172,-912,-100,177,0,0
83.94975,2596,936,15904,-896,-158,130,0,0
83.98295,2616,888,16160,-896,-219,37,0,0
83.98295,2512,816,16228,-896,-175,81,0,0
84.03275,2632,844,16276,-896,-150,268,0,0
84.03275,2624,964,16108,-912,-265,235,0,0
84.08254,2680,784,16056,-864,-210,43,0,0
84.11574,2672,892,16056,-928,-118,143,0,0
84.13234,2540,824,16048,-896,-139,132,0,0
84.21534,2628,940,16116,-912,-157,78,0,0
84.21534,2628,948,15968,-912,-150,175,0,0
84.29834,2572,772,15936,-928,-135,37,0,0
84.33154,2720,820,16356,-864,-173,176,0,0
84.33154,2656,860,16136,-912,-144,312,0,0
84.36473,2560,784,16128,-896,-145,262,0,0
84.36473,2672,824,16020,-896,-57,327,0,0
84.43113,2648,692,16004,-864,-61,555,0,0
84.43113,2700,884,16052,-928,-82,346,0,0
84.48093,2404,908,15956,-896,-175,138,0,0
84.48093,2572,820,16076,-944,-284,-17,0,0
84.53072,2524,852,16228,-896,-198,173,0,0
84.53072,2608,700,15992,-896,-106,196,0,0
84.58052,2604,784,16192,-912,-162,152,0,0
84.58052,2576,724,16124,-928,-141,257,0,0
84.61372,2540,760,16248,-896,-66,342,0,0
84.66352,2548,848,16044,-896,-145,265,0,0
84.66352,2504,796,15972,-880,-150,225,0,0
84.71332,2548,768,15964,-896,-135,152,0,0
84.71332,2600,740,16016,-880,-185,170,0,0
84.74652,2616,816,16044,-896,-153,73,0,0
84.76311,2572,760,16032,-896,-111,102,0,0
84.79632,2588,852,15980,-880,-89,165,0,0
84.79632,2640,756,16192,-896,-88,430,0,0
84.84612,2512,724,16280,-928,32,665,0,0
84.84612,2400,668,16008,-928,-1,462,0,0
84.8793,2460,752,16104,-896,-85,215,0,0
84.92911,2396,764,16212,-896,-130,241,0,0
84.92911,2388,772,16136,-912,-53,258,0,0
84.9789,2592,804,16212,-912,28,404,0,0
84.9789,2484,816,15972,-896,-49,309,0,0
85.0623,2480,736,16040,-928,-108,198,0,0
85.0789,2364,756,16168,-896,-124,136,0,0
85.16197,2460,888,16108,-896,-143,150,0,0
85.16197,2372,780,16152,-880,-132,207,0,0
85.29485,2472,728,16160,-928,-125,173,0,0
85.29485,2444,708,16044,-928,-101,292,0,0
85.34467,2472,796,16168,-912,-87,294,0,0
85.36128,2448,772,16188,-912,-149,270,0,0
85.37789,2328,736,16108,-912,-115,192,0,0
85.42773,2432,716,16156,-928,-76,262,0,0
85.42773,2324,796,16044,-880,-41,392,0,0
85.47755,2396,712,16104,-864,-96,234,0,0
85.47755,2432,860,16084,-896,-114,118,0,0
85.51077,2356,688,16188,-880,-73,140,0,0
85.52738,2516,736,16020,-896,-127,128,0,0
85.5606,2316,860,16132,-912,-40,161,0,0
85.5606,2372,724,16192,-928,-71,293,0,0
85.61043,2484,720,15976,-928,-95,169,0,0
85.64365,2432,756,16224,-896,-45,157,0,0
85.66021,2512,600,16120,-928,24,258,0,0
85.69347,2352,756,15936,-912,-34,259,0,0
85.69347,2336,748,15936,-896,-99,205,0,0
85.74313,2468,748,16036,-896,-99,204,0,0
85.74313,2364,832,16148,-896,-83,250,0,0
85.82613,2476,744,16196,-912,-80,53,0,0
85.84274,2404,836,15976,-912,-90,94,0,0
85.87593,2364,620,16060,-912,-110,120,0,0
85.92582,2472,692,16320,-896,-46,309,0,0
85.92582,2416,712,16088,-880,-40,279,0,0
85.92582,2408,748,16012,-880,-45,151,0,0
85.97565,2340,660,16048,-896,-91,187,0,0
86.00888,2260,676,16112,-896,-94,223,0,0
86.0255,2364,680,16156,-912,-9,336,0,0
86.04211,2344,856,16156,-896,-33,283,0,0
86.05872,2424,704,16072,-880,42,192,0,0
86.10856,2328,736,16024,-880,-66,65,0,0
86.10856,2264,800,16052,-928,-72,161,0,0
86.14178,2380,680,16084,-896,-28,104,0,0
86.1584,2448,808,16176,-880,-43,228,0,0
86.19163,2328,724,16156,-912,-70,248,0,0
86.24147,2400,848,16124,-912,-19,233,0,0
86.24147,2492,820,16212,-912,-39,195,0,0
86.2747,2204,872,16076,-896,-78,157,0,0
86.32453,2240,700,16104,-896,-85,127,0,0
86.32453,2268,772,16140,-896,-73,203,0,0
86.45744,2400,836,16144,-896,-72,111,0,0
86.47405,2444,776,16180,-912,-71,0,0,0
86.55712,2256,736,16128,-864,-63,235,0,0
86.55712,2432,800,16268,-896,-119,264,0,0
86.60696,2400,880,16004,-880,-32,244,0,0
86.60696,2336,628,16084,-944,15,294,0,0
86.69003,2292,756,16088,-864,-48,159,0,0
86.69003,2340,864,16112,-896,-55,107,0,0
86.73988,2256,860,16160,-896,-45,198,0,0
86.73988,2420,880,16156,-896,-38,154,0,0
86.87277,2336,752,16100,-912,-77,131,0,0
86.95583,2312,808,16152,-880,-67,126,1,0
86.95583,2468,816,16128,-912,-98,107,1,0
87.00568,2264,908,16040,-896,-11,136,1,0
87.00568,2332,840,16000,-896,-22,171,1,0
87.08875,2416,724,16156,-896,0,150,1,0
87.08875,2240,848,16056,-880,-5,230,1,0
87.13859,2340,868,16052,-912,-11,185,1,0
87.13859,2300,756,16172,-928,-43,200,1,0
87.18842,2092,992,16072,-912,-115,128,1,0
87.18842,2312,784,16136,-928,-74,110,1,0
87.22166,2288,824,15996,-880,-107,121,0,0
87.27148,2328,848,16032,-896,-119,85,0,0
87.27148,2380,816,16172,-912,-95,92,0,0
87.30472,2252,764,15964,-880,-78,155,0,0
87.32133,2344,760,16132,-880,-120,194,0,0
87.35456,2368,840,16308,-880,-93,209,0,0
87.35456,2280,784,16212,-912,-60,184,0,0
87.4044,2316,812,16100,-896,-66,144,0,0
87.4044,2224,888,16032,-912,-120,198,0,0
87.45424,2416,752,16144,-896,-60,111,0,0
87.47085,2212,876,16112,-896,-66,148,0,0
87.48746,2232,756,16200,-912,-105,195,0,0
87.50407,2308,784,16280,-896,-35,102,0,0
87.58666,2320,744,16160,-912,-79,258,0,0
87.63647,2352,868,16196,-896,-25,194,0,0
87.63647,2416,756,16068,-880,-21,161,0,0
87.71951,2296,784,16008,-864,-63,116,0,0
87.73611,2296,936,16040,-912,-88,131,0,0
87.73611,2464,780,16348,-896,-104,160,0,0
87.73611,2260,864,16016,-912,-99,154,0,0
87.81915,2176,944,16136,-912,-31,95,0,0
87.85236,2280,932,16244,-896,-40,248,0,0
87.90218,2300,720,16100,-912,-60,228,0,0
87.90218,2324,844,16056,-896,-23,230,0,0
87.952,2276,828,16092,-912,-27,256,0,0
88.03504,2408,836,16224,-912,-52,132,0,0
88.03504,2352,856,16072,-912,-78,113,0,0
88.08486,2224,880,16212,-880,-45,192,0,0
88.10146,2232,832,16100,-896,-8,209,0,0
88.16789,2300,896,15988,-928,-85,82,0,0
88.21771,2280,776,16232,-912,-34,92,0,0
88.21771,2300,896,16156,-912,-47,96,0,0
88.26753,2292,924,16148,-896,-89,170,0,0
88.26753,2328,740,16076,-880,-29,105,0,0
88.30074,2336,800,16092,-928,-80,121,0,0
88.30074,2272,780,16096,-848,-43,204,0,0
88.40038,2272,888,16164,-880,-23,272,0,0
88.40038,2464,972,16184,-912,-56,170,0,0
88.4502,2340,864,16040,-928,-108,177,0,0
88.53323,2364,948,16104,-896,-102,136,0,0
88.53323,2232,876,16128,-928,-131,124,0,0
88.56645,2332,796,16088,-896,-90,109,0,0
88.58305,2148,936,16148,-928,-38,190,0,0
88.61627,2376,916,16136,-880,46,223,0,0
88.63287,2308,860,16208,-880,-18,199,0,0
88.66609,2120,968,16232,-896,137,333,0,0
88.66609,2120,936,16236,-896,308,511,0,0
88.71591,2176,860,16080,-896,314,402,0,0
88.71591,2108,1036,16296,-896,245,455,0,0
88.74913,2224,1104,16056,-928,274,417,0,0
88.79895,2108,1088,16040,-912,334,414,0,0
88.81556,1968,1160,16008,-896,186,436,0,0
88.84876,2176,1200,16116,-896,-8,338,0,0
88.84876,1960,1288,16124,-896,-100,184,0,0
88.88197,1988,1368,16176,-864,-39,270,0,0
88.9318,1864,1056,15964,-880,-293,-223,0,0
88.94841,1880,1076,16072,-896,-96,-75,0,0
88.96501,1856,1092,15916,-896,-287,-352,0,0
88.96501,2236,1276,15828,-880,59,-19,0,0
89.01483,2128,1092,16044,-912,9,-458,0,0
89.03144,2352,1156,16396,-896,-38,-155,0,0
89.06465,2272,1144,16224,-896,130,193,0,0
89.08109,2036,1216,16232,-896,-44,-148,0,0
89.16429,2480,1164,16112,-912,125,-381,0,0
89.16429,2380,1328,16092,-912,21,133,0,0
89.1975,2196,1112,15892,-880,-72,-187,0,0
89.21411,2544,1124,16016,-912,43,-236,0,0
89.2477,2504,1028,16068,-912,-156,-90,0,0
89.2477,2564,900,15964,-896,12,-188,0,0
89.29752,2108,1424,16200,-896,-92,38,0,0
89.29752,2116,1180,16100,-864,-119,-214,0,0
89.34737,2484,1376,16016,-880,-189,-127,0,0
89.3806,2532,1028,16088,-912,76,-34,0,0
89.39722,2448,1456,15976,-880,-363,85,0,0
89.48028,2440,1060,15892,-880,-335,-49,0,0
89.48028,2616,1148,15952,-864,-208,-213,0,0
89.5135,2516,1196,16236,-864,-101,-98,0,0
89.53011,2724,1104,16000,-880,-157,56,0,0
89.54673,2364,1080,15888,-928,-110,134,0,0
89.54673,2704,928,16136,-896,103,-142,0,0
89.61318,2720,1240,16016,-928,76,143,0,0
89.61318,2348,1156,15836,-896,-397,-37,0,0
89.66302,2512,1168,15984,-880,-306,-437,0,0
89.69624,2812,1100,16096,-912,-7,-373,0,0
89.69624,2876,1160,16120,-944,-219,-157,0,0
89.79592,2892,1124,16088,-944,6,194,0,0
89.79592,2344,1176,15884,-912,-213,309,0,0
89.82914,2572,1028,15928,-928,-73,-320,0,0
89.84576,3028,1080,16128,-928,85,-23,0,0
89.87898,2716,1172,15980,-880,-69,229,0,0
89.87898,2656,1184,16092,-928,84,-2,0,0
89.92883,2704,1256,16012,-928,41,131,0,0
89.92883,2724,1092,16092,-896,71,70,0,0
89.96204,2596,1356,16144,-896,156,293,0,0
90.01189,2572,1472,16000,-928,-1,63,0,0
90.01189,3128,1028,16048,-928,105,136,0,0
90.06172,2744,1252,15980,-928,169,260,0,0
90.06172,2632,1300,15988,-912,92,186,0,0
90.11156,2592,1396,16108,-912,94,73,0,0
90.11156,2804,1144,16100,-912,56,89,0,0
90.14479,2652,1096,16084,-912,58,300,0,0
90.14479,2612,1308,16108,-928,22,254,0,0
90.19463,2868,1432,16128,-896,16,311,0,0
90.19463,2700,1348,16012,-912,-103,322,0,0
90.24446,2672,1332,16004,-880,52,379,0,0
90.24446,2648,1372,15928,-880,-126,116,0,0
90.2943,2672,1312,15784,-896,-164,-1,0,0
90.32753,2664,1244,15896,-896,-116,-231,0,0
90.34414,2616,1248,15820,-896,-103,-342,0,0
90.41059,2612,1212,15828,-896,-187,-503,0,0
90.4272,2908,1236,15872,-896,-13,-682,0,0
90.46043,2872,1432,16116,-880,83,-216,0,0
90.47688,2952,1472,16220,-912,106,-281,0,0
90.51027,2836,1632,15672,-928,-164,158,0,0
90.5435,2928,1340,15916,-880,96,-239,0,0
90.5601,2968,1376,16116,-928,-204,-139,0,0
90.60994,3048,1644,15936,-912,-190,-24,0,0
90.60994,2740,1240,15856,-896,-206,9,0,0
90.62656,2828,1572,15896,-912,253,-329,0,0
90.62656,3252,1456,16232,-896,285,-319,0,0
90.69301,3496,1236,16080,-896,180,225,0,0
90.70962,2856,1332,15716,-928,115,228,0,0
90.74284,2768,1452,15944,-896,69,16,0,0
90.74284,2920,1284,16132,-912,157,-47,0,0
90.79268,2968,1524,16180,-928,176,276,0,0
90.8093,2984,1340,15932,-912,173,252,0,0
90.8259,2816,1640,15676,-896,110,144,0,0
90.85913,2896,1624,16012,-880,111,-20,0,0
90.87575,3024,1520,16000,-896,-30,54,0,0
90.92558,3140,1336,15720,-896,-143,-13,0,0
90.92558,3268,1512,16092,-896,327,159,0,0
90.95881,2720,1896,15988,-896,-225,301,0,0
90.97542,2880,1584,15852,-880,-118,-219,0,0
91.00864,3376,1568,15940,-896,-26,-26,0,0
91.04187,2992,1632,15976,-896,-74,441,0,0
91.05848,2968,1392,15740,-896,-261,-106,0,0
91.0917,3040,1656,15776,-912,-302,-78,0,0
91.0917,2788,1600,15932,-896,-416,-230,0,0
91.14153,3296,1556,16152,-896,10,72,0,0
91.14153,3264,1252,16184,-864,-72,254,0,0
91.17477,2888,1600,15896,-912,-77,414,0,0
91.19138,2972,1624,15876,-896,-200,105,0,0
91.24121,3056,1536,15732,-896,-123,428,0,0
91.27444,3156,1556,15928,-928,-237,211,0,0
91.27444,3160,1644,16092,-912,-174,177,0,0
91.30766,3088,1428,15904,-928,-326,291,0,0
91.32428,2820,1664,16060,-928,-29,52,0,0
91.3575,3196,1384,16096,-944,-52,139,0,0
91.40734,2940,1496,16148,-880,49,331,0,0
91.42396,2804,1724,16020,-880,-69,336,0,0
91.45718,2924,1388,15948,-896,-403,-136,0,0
91.50702,3112,1584,16048,-928,-118,181,0,0
91.50702,3136,1400,15988,-912,-157,262,0,0
91.54025,3096,1460,15980,-912,-223,311,0,0
91.59008,3072,1356,15904,-912,40,402,0,0
91.59008,2940,1424,16200,-896,-233,201,0,0
91.62331,3004,1464,15904,-896,-166,-20,0,0
91.68976,2904,1608,16092,-928,-220,216,0,0
91.68976,2672,1500,16116,-912,-283,18,0,0
91.72298,3128,1368,16136,-912,89,107,0,0
91.77282,3092,1636,15888,-912,-151,451,0,0
91.82266,3032,1420,15788,-896,-199,112,0,0
91.87251,2720,1388,15752,-912,-157,337,0,0
91.87251,2936,1428,15852,-896,-395,-171,0,0
91.90573,2976,1448,15864,-928,-368,59,0,0
91.92234,3236,1480,15876,-896,-62,30,0,0
91.95557,3220,1144,16096,-896,27,390,0,0
91.98879,2904,1504,16008,-896,-201,408,0,0
91.98879,2756,1468,16000,-912,17,14,0,0
92.03863,2912,1720,16012,-896,-213,19,0,0
92.08847,3108,1164,16008,-928,-189,4,0,0
92.13831,3256,1480,15880,-896,-174,128,0,0
92.13831,3096,1264,15952,-912,-169,39,0,0
92.17153,2852,1524,15984,-896,-71,-58,0,0
92.17153,3240,1536,16168,-880,-280,-501,0,0
92.22137,3148,1176,16004,-880,-386,120,0,0
92.27121,2944,1364,16020,-880,24,151,0,0
92.27121,3076,1360,15856,-912,-233,-71,0,0
92.40411,2988,1368,15696,-928,-215,11,0,0
92.43732,3168,1108,15788,-896,-147,-271,0,0
92.45394,3216,1524,16080,-928,-64,59,0,0
92.48717,3092,1392,15984,-880,-46,284,0,0
92.48717,3040,1264,15652,-896,-61,207,0,0
92.58685,3148,1412,15792,-912,-81,-193,0,0
92.58685,3080,1612,15896,-912,-249,-7,0,0
92.66991,3180,1368,16044,-928,46,-290,0,0
92.68604,3248,1328,16016,-928,-245,-23,0,0
92.70267,3124,1448,16004,-896,-356,-289,0,0
92.76907,3400,1136,15780,-848,-163,-301,0,0
92.76907,3128,1436,16088,-864,-28,-70,0,0
92.80229,3144,1404,15980,-912,-55,74,0,0
92.80229,3048,1344,15920,-896,59,167,0,0
92.85212,3312,1268,15664,-896,-110,-22,0,0
92.85212,3424,1496,15940,-880,147,-148,0,0
92.90195,3304,1420,15916,-944,-93,-125,0,0
92.93516,3372,1436,15996,-896,-209,-303,0,0
92.95177,3236,1288,15744,-912,-94,-300,0,0
92.98499,3264,1372,15976,-928,246,-716,0,0
92.98499,3468,1224,15848,-896,226,-673,0,0
93.03481,3444,1400,15764,-880,-49,-662,0,0
93.03481,3392,1516,15892,-880,10,-828,0,0
93.08463,3732,1564,15820,-928,-75,-661,0,0
93.08463,3828,1280,15932,-864,24,-137,0,0
93.11785,3556,1380,15780,-912,-36,-2,0,0
93.16768,3556,1436,15696,-880,-233,-455,0,0
93.16768,3852,1376,15796,-896,82,-550,0,0
93.20089,3872,1320,16060,-880,142,-182,0,0
93.2175,3776,1404,15928,-912,284,391,0,0
93.25072,3632,1536,15532,-896,-376,-185,0,0
93.25072,3640,1484,15772,-912,-13,-364,0,0
93.30054,4064,1540,15960,-880,-254,-147,0,0
93.30054,3788,1168,15608,-944,-136,-100,0,0
93.35036,3716,1460,15772,-896,117,-318,0,0
93.36698,4016,1640,15728,-896,-122,-633,0,0
93.38358,3884,1404,15896,-928,-1216,-1501,0,0
93.45002,4276,956,16004,-896,-705,-1283,0,0
93.48323,4520,1240,16008,-880,-265,-285,0,0
93.53306,4196,1232,15696,-896,-214,102,0,0
93.53306,3892,1424,15600,-864,-451,-274,0,0
93.54967,4260,1296,15472,-896,-682,-989,0,0
93.6161,4420,1240,15700,-928,-349,-554,0,0
93.6161,4416,1196,15792,-896,-449,-686,0,0
93.66592,4236,1304,15564,-896,-1182,-1246,0,0
93.66592,4548,692,15564,-880,-912,-1387,0,0
93.71575,4864,1080,15588,-912,-592,-768,0,0
93.73236,4688,1056,15624,-880,-1096,-1101,0,0
93.74897,4720,956,15572,-864,-1176,-1186,0,0
93.79879,5016,608,15736,-880,-344,-434,0,0
93.83201,4876,684,15480,-912,-244,68,0,0
93.88184,4508,984,15332,-896,-975,-901,0,0
93.89845,5240,316,15644,-896,-559,-1014,0,0
93.91505,5376,692,16016,-896,-378,-263,0,0
93.96487,5044,864,15612,-880,-108,229,0,0
93.98148,4856,692,15168,-896,-326,-477,0,0
94.03131,5208,752,15432,-896,-938,-1364,0,0
94.06453,5652,408,15640,-896,-4,-175,0,0
94.06453,5208,548,15632,-896,-277,159,0,0
94.11435,5208,640,15304,-880,-212,-53,0,0
94.16418,4984,692,15316,-896,-169,-572,0,0
94.16418,5456,700,15592,-896,-179,-431,0,0
94.1974,5208,692,15364,-880,-681,-802,0,0
94.24722,5564,416,15220,-896,-591,-1372,0,0
94.24722,5660,528,15444,-912,-29,-903,0,0
94.26382,5452,912,15268,-896,-153,-1389,0,0
94.33025,5688,320,15372,-896,-602,-1717,0,0
94.38008,6212,360,15584,-912,-199,-1055,0,0
94.38008,6336,476,15476,-896,-94,387,0,0
94.4133,5752,504,15248,-912,-121,779,0,0
94.4133,5528,588,15036,-912,-111,-126,0,0
94.46313,5872,608,15132,-896,-169,-55,0,0
94.51295,5784,484,15152,-944,-276,-193,0,0
94.61259,6004,328,15196,-880,-557,-983,0,0
94.61259,6264,456,15520,-912,-354,-225,0,0
94.66242,5932,468,15288,-944,-59,344,0,0
94.74546,6076,488,15312,-896,223,861,0,0
94.74546,5800,404,15216,-880,35,944,0,0
94.77868,5732,480,14844,-864,-343,166,0,0
94.79529,5856,332,15124,-896,-83,-30,0,0
94.87833,5692,536,15524,-880,-140,-197,0,0
94.87833,6104,424,15036,-896,-532,-315,0,0
94.92815,6116,80,15248,-896,1,113,0,0
94.96137,6000,552,15288,-896,240,869,0,0
95.01119,5728,560,15096,-912,3,798,0,0
95.01119,5632,400,15104,-896,-125,310,0,0
95.06102,5804,300,15260,-912,-139,-79,0,0
95.09424,6000,492,15424,-896,152,381,0,0
95.11085,5828,436,15276,-912,-197,438,0,0
95.14407,5708,356,15076,-912,15,340,0,0
95.16067,5908,456,15320,-880,-99,374,0,0
95.24371,5712,360,15100,-896,-30,140,0,0
95.24371,5752,600,15220,-912,-84,100,0,0
95.37658,5992,412,15512,-880,-86,15,0,0
95.37658,5968,360,15448,-880,-126,252,0,0
95.42641,5872,420,15300,-880,-125,265,0,0
95.42641,5764,404,15308,-912,24,220,0,0
95.50945,5784,420,15420,-912,-193,273,0,0
95.50945,5880,316,15296,-912,105,308,0,0
95.55927,5696,396,15304,-896,-155,320,0,0
95.55927,5672,448,15196,-928,-221,149,0,0
95.64232,5916,344,15184,-944,110,337,0,0
95.69214,5760,688,15400,-896,35,450,0,0
95.69214,5928,568,15440,-864,-12,533,0,0
95.77518,5540,456,15060,-912,-226,441,0,0
95.77518,5672,380,15340,-896,31,-20,0,0
95.8084,5708,588,15432,-896,-248,114,0,0
95.82484,5720,292,15220,-880,-129,230,0,0
95.90804,5688,512,15376,-896,-45,170,0,0
95.92466,5964,344,15128,-896,-107,207,0,0
95.95787,5612,520,15168,-912,-156,-82,0,0
95.95787,5764,604,15428,-880,-296,-101,0,0
96.05753,5984,300,15496,-896,6,429,0,0
96.14056,5664,264,15296,-880,-26,437,0,0
96.14056,5840,520,15440,-896,42,402,0,0
96.27343,5452,508,15300,-896,-17,660,0,0
96.27343,5608,232,15068,-896,-160,434,0,0
96.32326,5716,188,15172,-896,-17,171,0,0
96.32326,5856,596,15360,-864,8,337,0,0
96.33987,5868,404,15316,-864,64,571,0,0
96.35647,5612,476,15188,-912,-7,509,0,0
96.38969,5488,460,15260,-928,3,671,0,0
96.4063,5608,556,15428,-880,17,736,0,0
96.43951,5440,488,15368,-896,-149,739,0,0
96.43951,5488,436,15280,-912,90,489,0,0
96.50595,5364,496,15536,-896,64,439,0,0
96.50595,5232,616,15544,-912,-13,468,0,0
96.55577,5476,388,15428,-880,-26,69,0,0
96.58899,5588,376,15488,-896,-49,274,0,0
96.58899,5424,500,15308,-864,7,373,0,0
96.6056,5436,536,15308,-896,-75,355,0,0
96.63882,5456,352,15364,-912,138,377,0,0
96.67186,5240,712,15220,-912,-74,576,0,0
96.67186,5448,376,15536,-896,154,258,0,0
96.72186,5240,1012,15412,-928,200,1538,0,0
96.72186,5124,520,15312,-896,296,969,0,0
96.75508,5432,496,15388,-928,255,1159,0,0
96.75508,4900,712,15520,-928,146,974,0,0
96.82151,4988,716,15544,-864,-179,760,0,0
96.83812,4964,548,15692,-880,-124,1170,0,0
96.85455,5200,620,15664,-928,104,1084,0,0
96.88794,4988,588,15652,-896,261,1515,0,0
96.90455,4648,700,15440,-896,77,1134,0,0
96.92116,4796,536,15604,-896,16,832,0,0
96.93777,5072,288,15580,-864,229,1091,0,0
96.98759,5216,452,15680,-880,697,2187,0,0
97.0042,4572,652,15800,-896,565,2573,0,0
97.08724,4100,788,15644,-912,-126,2294,0,0
97.08724,4036,616,15752,-864,200,1909,0,0
97.10385,3920,992,15560,-912,296,2108,0,0
97.12047,3984,632,15692,-896,801,1466,0,0
97.17013,3996,924,15792,-896,421,1376,0,0
97.17013,3768,596,15824,-880,391,1209,0,0
97.26994,3716,992,15716,-912,355,1052,0,0
97.30315,3392,956,16096,-880,125,585,0,0
97.30315,3772,936,15872,-880,-115,421,0,0
97.33636,3804,748,16184,-896,239,814,0,0
97.35297,3672,912,15992,-896,23,987,0,0
97.4028,3672,752,15760,-928,-26,1017,0,0
97.4028,3464,776,15692,-896,168,1039,0,0
97.45262,3240,964,15860,-896,181,582,0,0
97.45262,3420,1048,16096,-896,31,409,0,0
97.46923,3400,704,15852,-880,-48,400,0,0
97.46923,3596,756,15860,-912,205,629,0,0
97.53567,3236,924,15868,-896,107,376,0,0
97.53567,3508,1080,15924,-896,-36,225,0,0
97.61871,3356,848,16020,-896,-11,450,0,0
97.63531,3308,1100,15936,-928,-54,495,0,0
97.65192,3356,656,15872,-896,165,716,0,0
97.65192,3296,844,16140,-880,523,1177,0,0
97.70174,2928,1136,15916,-864,41,795,0,0
97.71835,3168,1044,15884,-896,-370,311,0,0
97.76818,3552,652,15676,-864,66,484,0,0
97.76818,3316,724,15980,-896,423,959,0,0
97.8014,3736,856,15848,-896,1050,522,0,0
97.8014,2584,1820,15828,-896,-21,823,0,0
97.83461,2568,1268,15804,-928,-355,-594,0,0
97.93427,3300,992,16272,-896,-21,-406,0,0
97.93427,3652,680,16192,-912,292,345,0,0
97.98409,3064,904,15944,-880,289,714,0,0
97.98409,2920,1180,15952,-880,244,573,0,0
98.03391,3012,1056,15720,-912,-108,-1,0,0
98.03391,3180,1108,16128,-880,-26,387,0,0
98.06706,3016,1172,16040,-896,0,632,0,0
98.08373,2972,916,15808,-880,-78,505,0,0
98.11696,2744,1072,15808,-880,-121,563,0,0
98.11696,3096,1140,15984,-896,189,-22,0,0
98.16678,3108,1252,15928,-880,-198,261,0,0
98.24982,3088,1088,16068,-912,74,142,0,0
98.24982,3116,748,15776,-880,891,-505,0,0
98.29964,3280,1180,16236,-912,1107,-225,0,0
98.29964,3164,1524,16304,-896,504,583,0,0
98.33286,2672,1412,16052,-912,-382,453,0,0
98.34946,3092,1084,15916,-912,-492,-136,0,0
98.38268,2992,1272,15828,-912,-380,480,0,0
98.39929,3144,1088,16268,-896,-37,-15,0,0
98.48234,3356,1348,16192,-912,-183,661,0,0
98.56538,3036,1088,15952,-896,-109,873,0,0
98.56538,3000,1176,15964,-880,164,870,0,0
98.69825,2768,1336,15988,-880,-39,825,0,0
98.71486,2900,1284,15948,-896,-128,495,0,0
98.7979,2796,836,15996,-896,-336,682,0,0
98.7979,2972,1096,16032,-896,185,696,0,0
98.88094,2788,1192,16220,-864,127,1322,0,0
98.88094,2564,1032,16016,-896,344,1102,0,0
99.0138,2468,1220,15880,-912,53,746,0,0
99.04701,2532,1208,15928,-880,52,542,0,0
99.06362,2520,1152,16092,-880,-37,517,0,0
99.16328,2724,1472,16032,-896,-70,632,0,0
99.16328,2452,1160,15968,-896,-383,1151,0,0
99.17989,2544,1224,16100,-880,-49,288,0,0
99.1965,2892,1188,16256,-896,103,664,0,0
99.29614,2536,1260,16128,-880,171,993,0,0
99.29614,2140,1244,16080,-880,6,814,0,0
99.32936,2160,1356,15756,-880,-363,485,0,0
99.32936,2380,1060,15916,-864,-170,392,0,0
99.42901,2272,1152,16268,-864,71,514,0,0
99.56188,2260,1284,15972,-896,-293,684,0,0
99.56188,1860,1296,15824,-880,-508,-65,0,0
99.6117,2120,756,16140,-896,-589,-691,0,0
99.6117,2700,968,16456,-880,-209,-466,0,0
99.64525,2228,1252,16048,-896,-61,631,0,0
99.64525,2240,1312,15948,-880,-39,-115,0,0
99.69512,2356,1224,16116,-928,192,678,0,0
99.69512,2284,960,16208,-912,241,542,0,0
99.74496,2580,984,16748,-880,1282,1708,0,0
99.7782,1992,936,16028,-912,1309,1624,0,0
99.79481,1912,1284,15812,-912,28,831,0,0
99.82803,1920,1272,16140,-880,138,527,0,0
99.82803,1812,1412,16224,-864,372,480,0,0
99.87788,1820,1380,15948,-880,-70,378,0,0
99.87788,1968,1400,16088,-928,-8,486,0,0
99.92772,1932,1380,16080,-896,-58,494,0,0
99.96095,1972,1484,16040,-880,-67,473,0,0
99.96095,1752,1516,15856,-864,344,1243,0,0
100.0606,1688,1512,16028,-896,81,1072,0,0
100.0606,1652,1360,16084,-848,-85,450,0,0
100.0939,1804,1296,16280,-912,-95,428,0,0
100.1105,1620,1348,16292,-912,-94,681,0,0
100.1936,1472,1532,16132,-896,-54,709,0,0
100.2268,1332,1192,16016,-880,16,386,0,0
100.2434,1604,1404,16404,-912,-125,348,0,0
100.3265,1672,1428,16376,-880,64,518,0,0
100.3265,1384,1468,16240,-912,119,456,0,0
100.3763,1340,1556,16080,-912,-75,221,0,0
100.4594,1428,1412,16200,-928,-130,174,0,0
100.4594,1412,1356,16020,-912,-161,208,0,0
100.4926,1424,1392,16128,-896,-248,167,0,0
100.5923,1516,1476,16272,-928,-208,-44,0,0
100.5923,1464,1540,16104,-896,-221,20,0,0
100.7252,1552,1396,16196,-912,-209,99,0,0
100.7418,1508,1272,16224,-880,-201,203,0,0
100.7751,1524,1516,16120,-896,-219,311,0,0
100.7751,1588,1432,16284,-896,-152,220,0,0
100.8581,1484,1520,16256,-880,-18,297,0,0
100.908,1436,1564,16072,-912,-88,405,0,0
100.9246,1356,1444,16072,-880,-257,232,0,0
100.9412,1392,1412,16080,-912,-315,29,0,0
100.9412,1432,1364,16316,-912,-231,66,0,0
100.9911,1372,1188,16268,-896,-168,110,0,0
101.0077,1496,1292,16308,-912,-119,293,0,0
101.0409,1464,1344,16232,-896,-120,235,0,0
101.0907,1436,1328,16284,-912,-80,176,0,0
101.0907,1404,1396,16252,-912,-92,213,0,0
101.1738,1472,1360,16004,-880,-132,82,0,0
101.1738,1524,1364,16232,-896,-95,123,0,0
101.2735,1536,1304,16316,-896,-125,-33,0,0
101.2735,1316,1340,16224,-880,-64,224,0,0
101.3566,1392,1404,16140,-848,-25,323,0,0
101.3566,1624,1212,16164,-864,10,245,0,0
101.4064,1368,1460,15976,-880,-45,287,0,0
101.4064,1360,1472,16120,-880,-110,201,0,0
101.4396,1512,1384,16112,-896,-197,65,0,0
101.4563,1524,1384,16244,-896,-161,8,0,0
101.5056,1496,1328,16232,-896,-183,-10,0,0
101.5388,1560,1236,16316,-896,-149,51,0,0
101.5388,1384,1220,16284,-896,-205,150,0,0
101.5886,1404,1272,16232,-896,-217,133,0,0
101.5886,1552,1264,16324,-928,-130,166,0,0
101.6218,1372,1300,16076,-896,-248,3,0,0
101.6384,1472,1148,16320,-912,-259,-46,0,0
101.6716,1496,1076,16100,-896,-497,31,0,0
101.6716,1480,1612,16224,-880,0,12,0,0
101.7214,1296,1360,15932,-912,-212,-197,0,0
101.8044,1728,1180,16304,-880,-397,-231,0,0
101.8044,1620,1112,16136,-896,-102,55,0,0
101.8542,1452,1256,16140,-864,-83,120,0,0
101.8542,1688,1180,16328,-880,12,98,0,0
101.904,1764,1096,16356,-896,-81,80,0,0
101.904,1584,1148,16020,-896,94,83,0,0
101.9372,1408,1320,16000,-896,94,88,0,0
101.9372,1532,1316,16204,-912,-186,175,0,0
101.987,1512,1344,16224,-928,-243,136,0,0
102.0368,1740,1268,16100,-896,-397,-244,0,0
102.0368,1804,1044,16236,-880,-348,-325,0,0
102.07,1540,1192,16240,-944,-333,15,0,0
102.07,1648,1128,16224,-864,-123,297,0,0
102.1198,1656,992,16116,-880,31,257,0,0
102.1198,1648,1024,16180,-912,-69,130,0,0
102.2194,1716,1128,16252,-928,-82,-43,0,0
102.2194,1696,1116,16228,-912,75,21,0,0
102.2526,1688,1176,16016,-896,-31,174,0,0
102.2692,1732,1248,16272,-912,-98,179,0,0
102.3025,1720,1300,16108,-864,-157,108,0,0
102.3357,1812,1140,16356,-912,-189,148,0,0
102.3521,1804,1168,16124,-864,-209,134,0,0
102.402,1780,1168,16180,-928,-171,111,0,0
102.402,1808,1444,16252,-864,-102,-15,0,0
102.4187,1856,1120,16140,-896,-186,98,0,0
102.4187,1596,1020,16076,-896,-193,68,0,0
102.4851,1668,1076,16300,-896,-173,-1,0,0
102.4851,1912,1056,16360,-880,-116,52,0,0
102.5349,1644,1232,16048,-896,-133,137,0,0
102.5515,1920,1008,16332,-880,-115,176,0,0
102.5515,1724,1164,16112,-880,-94,159,0,0
102.6013,1784,1168,16240,-928,-188,106,0,0
102.6179,1760,1128,16272,-912,-152,117,0,0
102.6677,1792,1092,16228,-880,-54,251,0,0
102.6677,1740,1084,16248,-912,-100,89,0,0
102.6843,1632,1244,16192,-944,-188,175,0,0
102.7009,1848,1104,16196,-944,-174,149,0,0
102.7507,1628,1080,16212,-896,-219,120,0,0
102.8005,1728,1024,15984,-848,-151,-105,0,0
102.8005,1844,1004,16328,-912,-65,16,0,0
102.8337,1836,1000,16188,-864,-46,206,0,0
102.8503,1748,1000,16172,-896,-111,140,0,0
102.8835,1840,1136,16268,-896,-105,129,0,0
102.9001,1764,1188,16168,-912,-49,301,0,0
102.9333,1780,1032,16308,-896,-53,186,0,0
102.9333,1724,996,16168,-928,-41,175,0,0
102.9831,1616,1060,15972,-880,-131,102,0,0
103.0329,1848,1100,16272,-896,-164,77,0,0
103.0329,1692,1076,16308,-912,-74,126,0,0
103.0495,1712,1044,16196,-880,-66,153,0,0
103.0661,1840,976,16312,-896,-74,151,0,0
103.1159,1672,1000,16292,-880,-29,216,0,0
103.1491,1692,1076,16260,-880,-76,311,0,0
103.1657,1708,1248,16220,-896,-7,342,0,0
103.1989,1800,1080,16180,-880,30,231,0,0
103.1989,1664,972,16192,-880,-68,100,0,0
103.2487,1604,1192,16312,-896,-23,166,0,0
103.2487,1936,1080,16160,-880,-45,271,0,0
103.2985,1800,1076,16264,-848,47,314,0,0
103.2985,1604,1224,16144,-896,-23,107,0,0
103.3483,1604,1096,16140,-896,-165,-173,0,0
103.3649,1788,1020,16408,-864,-143,122,0,0
103.3649,1952,888,16344,-864,5,447,0,0
103.4313,1772,1252,16080,-896,47,431,0,0
103.4811,1624,1164,15976,-896,32,343,0,0
103.5143,1912,1088,16092,-912,8,21,0,0
103.5143,1668,1180,16152,-928,24,42,0,0
103.5475,1620,1200,16156,-880,-140,-50,0,0
103.5475,1568,1176,16200,-880,-140,92,0,0
103.6139,1720,1192,16328,-896,-45,247,0,0
103.6139,1780,1036,16068,-896,-92,237,0,0
103.6471,1852,980,16272,-896,-41,97,0,0
103.6471,1684,1140,16268,-896,64,340,0,0
103.6969,1748,1100,16248,-880,-4,179,0,0
103.6969,1696,1172,16280,-864,33,153,0,0
103.7965,1788,1152,16296,-912,90,263,0,0
103.7965,1628,1156,16172,-896,91,307,0,0
103.8297,1712,1132,16144,-896,48,139,0,0
103.8795,1484,1240,16256,-928,51,154,0,0
103.8795,1740,1080,16104,-896,-88,-25,0,0
103.9127,1844,1100,16240,-864,-5,-154,0,0
103.9293,1824,1180,16112,-880,-29,-72,0,0
103.9625,1628,1312,16084,-896,-232,-394,0,0
103.9625,1568,1244,15996,-880,-506,-610,0,0
104.0123,1408,1404,16016,-912,-1660,-1872,0,0
104.0621,1812,972,16240,-880,-1730,-3273,0,0
104.0621,1496,760,16096,-896,-1391,-3695,0,0
104.0953,2976,-1136,16484,-880,1452,-5073,0,0
104.1119,4624,2148,16392,-928,197,-484,0,0
104.1285,2512,796,15944,-880,-361,918,0,0
104.1285,2904,1180,15976,-896,-110,-105,0,0
104.195,2628,876,15944,-912,-438,219,0,0
104.195,2532,868,16052,-912,-363,-336,0,0
104.2448,3004,932,16188,-864,-316,-289,0,0
104.278,2944,844,16040,-896,-130,185,0,0
104.278,2948,964,16072,-896,325,266,0,0
104.3278,2736,1144,15956,-864,0,207,0,0
104.3278,2636,992,15976,-848,-440,-331,0,0
104.3776,3108,860,16128,-896,-291,-609,0,0
104.4108,3204,784,16052,-896,91,-88,0,0
104.4274,2708,1140,16040,-880,-16,-102,0,0
104.4606,2908,980,15928,-912,-200,-322,0,0
104.4606,2984,964,15836,-912,-283,-604,0,0
104.5104,3176,868,16020,-864,-115,-610,0,0
104.5436,3116,1012,16088,-896,-197,-738,0,0
104.6432,3388,1080,15996,-880,-482,-792,0,0
104.693,3352,736,15540,-880,-459,-649,0,0
104.693,3168,860,15924,-912,-441,-1010,0,0
104.7428,3652,764,16132,-912,-288,-742,0,0
104.7428,3476,764,15992,-896,-540,-495,0,0
104.776,3636,832,16044,-880,-183,-347,0,0
104.776,3464,960,15852,-896,-204,-15,0,0
104.8258,3520,956,15820,-896,-357,-247,0,0
104.859,3644,784,15864,-880,-194,-547,0,0
104.8756,3720,664,15928,-896,-222,-152,0,0
104.9088,3536,652,15768,-896,-160,-220,0,0
104.9586,3840,580,15584,-896,-185,-362,0,0
104.9586,3512,724,15988,-896,32,-494,0,0
104.9918,4432,564,16380,-912,331,-17,0,0
105.0084,3668,948,16084,-896,122,1084,0,0
105.0416,3412,848,15864,-880,140,579,0,0
105.0914,3764,816,15864,-928,207,388,0,0
105.0914,3724,960,15964,-896,361,589,0,0
105.1242,3768,676,15800,-912,281,637,0,0
105.1744,3748,1100,16036,-912,610,316,0,0
105.191,3784,1380,16144,-896,154,725,0,0
105.2242,3224,568,15888,-896,178,252,0,0
105.274,3408,1128,15876,-864,80,-443,0,0
105.2906,3856,812,15852,-912,32,-372,0,0
105.3237,3600,1180,15624,-896,-81,-292,0,0
105.3736,3500,1104,15764,-896,-346,-562,0,0
105.3736,3772,1160,16280,-864,-34,-455,0,0
105.3897,3824,920,16096,-896,-192,-71,0,0
105.4561,3784,840,15980,-912,23,-232,0,0
105.4561,3744,1032,15820,-896,-84,14,0,0
105.5059,3600,1312,15784,-896,-21,-273,0,0
105.539,4116,944,15876,-880,-145,-272,0,0
105.5556,3496,1104,15716,-896,-244,-218,0,0
105.6386,3592,1052,15808,-896,-335,-734,0,0
105.6386,3944,1160,15588,-880,-678,-854,0,0
105.6718,4076,1172,15996,-928,-529,-972,0,0
105.6718,4384,752,15736,-896,-453,-427,0,0
105.7215,4332,784,15704,-896,-388,-697,0,0
105.7713,4500,604,15880,-896,-245,-259,0,0
105.7713,4376,676,15940,-880,53,56,0,0
105.8211,3896,936,15808,-896,-33,281,0,0
105.8542,4120,872,15736,-896,-4,-93,0,0
105.8708,4524,700,15568,-880,367,153,0,0
105.8874,4180,1016,15556,-896,25,246,0,0
105.8874,4064,996,15528,-912,-109,-41,0,0
106.0036,4260,980,15672,-896,-230,-195,0,0
106.0865,4220,932,15972,-912,123,206,0,0
106.0865,4048,1232,15816,-896,-258,126,0,0
106.1363,4280,840,15612,-912,-254,-246,0,0
106.1363,4380,1024,15724,-896,-113,-39,0,0
106.1529,4312,984,15960,-912,171,25,0,0
106.1529,4508,944,15808,-928,-180,278,0,0
106.2026,4220,1000,15520,-896,86,410,0,0
106.2192,4228,1016,15728,-864,-96,212,0,0
106.3022,4144,984,15808,-896,-28,-164,0,0
106.3188,4476,792,15828,-912,-13,117,0,0
106.4017,4216,1060,15572,-912,-10,465,0,0
106.4183,4188,1060,15652,-880,4,104,0,0
106.4515,4040,1200,15784,-912,-37,93,0,0
106.4515,4292,1196,15816,-896,-460,-54,0,0
106.5013,3976,1168,15980,-880,-526,159,0,0
106.5013,4768,640,15820,-880,-224,173,0,0
106.5179,4600,748,15628,-896,-8,746,0,0
106.5676,3980,952,15776,-880,23,484,0,0
106.5842,4008,1200,15752,-880,-136,123,0,0
106.6174,4288,988,15456,-912,-337,-20,0,0
106.634,4232,1012,15896,-912,78,270,0,0
106.7169,4148,1248,15776,-880,-685,75,0,0
106.7169,4272,952,15876,-880,-845,9,0,0
106.7335,4264,1000,15664,-864,-935,315,0,0
106.7505,4184,964,15764,-912,-1104,-166,0,0
106.8003,4428,752,15728,-880,-1024,99,0,0
106.8169,4356,632,15772,-896,-742,508,0,0
106.8335,4172,692,15616,-896,-441,477,0,0
106.8833,4188,796,15740,-896,-327,385,0,0
106.8833,4424,764,16092,-880,-186,351,0,0
106.9331,4328,872,15492,-896,-252,1066,0,0
106.9497,4160,408,15656,-912,204,835,0,0
106.9663,3884,988,15688,-896,37,380,0,0
106.9663,3876,984,15972,-864,-295,305,0,0
107.0327,4044,776,15664,-896,-537,318,0,0
107.0659,4064,736,15672,-912,-142,255,0,0
107.0825,4112,696,15928,-896,298,488,0,0
107.1156,3936,752,15736,-896,164,624,0,0
107.1156,3952,496,15900,-864,542,314,0,0
107.1654,4044,1064,15976,-880,104,526,0,0
107.1986,3904,1080,15820,-912,231,554,0,0
107.2152,3872,1080,15656,-896,-280,341,0,0
107.2484,3992,976,15708,-880,-18,209,0,0
107.2982,4056,764,15832,-912,-68,495,0,0
107.2982,3664,1168,15772,-864,12,483,0,0
107.348,3900,932,15712,-928,-187,66,0,0
107.348,3964,840,15832,-880,182,545,0,0
107.3978,3704,976,15668,-864,58,359,0,0
107.431,3784,1052,15952,-896,-10,376,0,0
107.431,3740,832,15820,-880,-243,297,0,0
107.4808,3904,940,15616,-896,33,207,0,0
107.5306,3936,952,15916,-912,96,367,0,0
107.5638,3652,1076,15868,-912,-143,234,0,0
107.5638,3616,1048,15792,-896,-25,84,0,0
107.6136,3708,864,15824,-912,-299,2,0,0
107.6634,3908,804,16052,-896,159,308,0,0
107.6634,3816,792,15872,-880,-64,542,0,0
107.7132,3580,1060,16024,-896,-54,191,0,0
107.7298,3776,1020,15744,-848,-180,5,0,0
107.7298,3928,884,15776,-896,-19,217,0,0
107.7961,3676,996,15996,-848,4,216,0,0
107.8459,3760,1064,15796,-848,-114,501,0,0
107.8459,3628,900,15724,-896,-279,140,0,0
107.8791,3852,1028,15860,-896,171,220,0,0
107.8791,3800,1224,15956,-896,-46,475,0,0
107.9289,3432,1036,15724,-864,-266,374,0,0
107.9787,3648,908,15784,-896,-274,-132,0,0
108.0119,3968,692,15976,-912,-119,106,0,0
108.0119,3728,1108,15912,-912,-92,481,0,0
108.0617,3608,888,15640,-896,-271,348,0,0
108.0783,3480,1088,15652,-896,-62,119,0,0
108.1115,3736,972,16144,-896,-195,212,0,0
108.1447,3940,840,15856,-896,-133,607,0,0
108.1613,3608,892,16008,-912,119,892,0,0
108.1945,3340,1144,15936,-896,-65,703,0,0
108.2443,3376,1012,15788,-912,-121,430,0,0
108.2443,3456,1056,15860,-912,-171,301,0,0
108.2775,3528,1024,15756,-896,-388,240,0,0
108.3273,3596,796,16016,-864,136,461,0,0
108.377,3340,1052,15864,-880,-229,466,0,0
108.377,3408,968,15840,-896,-150,232,0,0
108.4268,3592,680,15924,-896,109,98,0,0
108.4766,3436,1116,15780,-912,416,215,0,0
108.4766,3480,1336,15944,-896,26,128,0,0
108.5098,3268,980,15732,-896,-30,170,0,0
108.543,3524,996,15916,-896,-33,-79,0,0
108.5596,3556,1116,15772,-880,-336,105,0,0
