Time,Ax,Ay,Az,Gx,Gy,Gz,Breathing,Ground Truth
9.178015,0,0,0,0,0,0,0,0
9.178015,-9731.526,103.8944,-109.7625,-1394.105,244.932,420.7789,0,0
9.2775,-15088.78,-209.4671,-351.5245,-2409.107,132.9316,323.6758,0,0
9.2775,-17664.51,-376.8181,-458.2231,-2884.694,11.7138,258.8463,0,0
9.29408,-18745.13,-552.8215,-579.4383,-3065.865,-83.6217,223.4268,0,0
9.29408,-19164.65,-551.804,-551.4509,-3112.085,-158.7796,263.1835,0,0
9.29408,-19229.47,-618.2773,-541.5773,-3124.396,-249.725,269.4006,0,0
9.29408,-19273.74,-683.1295,-516.0923,-3132.816,-302.8559,459.4529,0,0
9.327241,-19318.73,-543.3883,-616.4812,-3137.567,-273.1644,465.5202,0,0
9.343821,-19248.87,-511.2129,-695.7232,-3126.44,-185.9833,492.5454,0,0
9.376983,-19198.44,-500.525,-700.455,-3116.564,-129.8668,472.023,0,0
9.376983,-19135.51,-519.4457,-726.8043,-3103.344,-143.5145,518.6829,0,0
9.426723,-19117.44,-566.3732,-782.444,-3101.217,-145.5316,434.7943,0,0
9.426723,-19104.17,-599.3694,-866.2535,-3093.365,-207.2709,381.2519,0,0
9.476464,-19042.14,-624.2689,-883.5782,-3080.52,-257.2395,282.8421,0,0
9.476464,-18978.28,-625.1149,-860.6042,-3067.169,-307.6902,231.5464,0,0
9.526204,-18886.98,-622.0384,-852.6124,-3056.695,-316.1194,221.2752,0,0
9.559365,-18784.13,-623.0453,-885.3606,-3051.949,-272.1971,185.0115,0,0
9.559365,-18735.65,-621.7886,-876.5601,-3034.284,-236.8245,181.7305,0,0
9.642265,-18655.13,-631.5854,-881.2394,-3006.35,-181.5423,178.3078,0,0
9.658848,-18553.36,-650.0908,-859.699,-2987.825,-131.0252,144.4312,0,0
9.692008,-18440.97,-660.1684,-830.9021,-2963.847,-91.24786,107.2664,0,0
9.692008,-18312.6,-702.3083,-837.4157,-2940.43,-81.24039,87.1754,0,0
9.741747,-18178.73,-706.2593,-816.1409,-2922.32,-122.3981,95.32326,0,0
9.741747,-18077.46,-668.6217,-823.5856,-2908.728,-183.5878,89.14881,0,0
9.791491,-17924.45,-642.6296,-820.9881,-2890.086,-219.73,28.56302,0,0
9.791491,-17859.62,-650.2712,-770.7427,-2876.82,-252.4697,-33.80162,0,0
9.824651,-17774.83,-662.5952,-769.9844,-2845.7,-281.1851,-19.17072,0,0
9.87439,-17681.76,-619.5939,-754.8721,-2841.279,-268.7103,5.587283,0,0
9.957292,-17585.86,-611.2083,-732.2425,-2812.993,-214.3027,-0.3628401,0,0
9.97387,-17531.12,-632.6854,-681.7813,-2802.247,-169.9801,18.52669,0,0
10.00703,-17461.04,-595.9799,-679.0303,-2796.19,-127.1351,44.39754,0,0
10.00703,-17385.65,-573.7173,-660.6762,-2780.553,-121.0383,75.52505,0,0
10.05677,-17333.62,-540.4288,-673.6963,-2771.042,-124.7926,99.50401,0,0
10.08993,-17245.86,-543.1358,-658.6507,-2766.344,-153.2688,121.8294,0,0
10.10651,-17182.48,-521.3568,-655.4255,-2765.44,-200.6199,134.8037,0,0
10.13967,-17136.2,-521.8923,-628.0629,-2758.676,-303.3103,199.0057,0,0
10.15626,-17106.9,-491.9207,-654.2919,-2738.671,-389.4713,171.3321,0,0
10.18942,-17059.03,-507.3434,-676.1166,-2735.233,-379.4871,115.4614,0,0
10.18942,-17053.93,-468.9177,-684.5765,-2731.28,-312.2854,141.1247,0,0
10.2889,-17013.34,-460.2474,-597.53,-2713.723,-247.9865,118.6897,0,0
10.2889,-16990.34,-444.4961,-595.9609,-2712.44,-209.0816,127.313,0,0
10.32206,-16983.44,-477.649,-583.4415,-2697.103,-177.8346,131.7296,0,0
10.3718,-16974.81,-486.1526,-615.7506,-2693.252,-166.3925,215.9922,0,0
10.3718,-16886.53,-474.667,-634.6882,-2693.83,-121.1389,174.2606,0,0
10.42154,-16856.3,-478.9358,-625.6312,-2675.692,-91.93335,171.3104,0,0
10.42154,-16842.05,-464.2517,-610.6853,-2674.333,-64.28991,180.6196,0,0
10.4547,-16796.01,-461.691,-655.5347,-2663.711,-47.60304,207.883,0,0
10.47128,-16790.21,-480.6155,-666.3098,-2663.787,-3.060912,162.4221,0,0
10.50444,-16766.71,-501.5533,-646.5541,-2667.66,-12.07053,161.0985,0,0
10.50444,-16709.97,-494.0825,-633.3972,-2674.464,-22.72413,135.9674,0,0
10.55418,-16697.89,-492.5864,-653.0336,-2665.806,-46.78868,124.7952,0,0
10.60393,-16715.77,-516.7286,-636.8136,-2663.085,-65.27143,117.4118,0,0
10.60393,-16707.95,-526.1129,-667.4143,-2651.652,-85.52618,124.5754,0,0
10.63708,-16692.82,-515.3257,-629.6683,-2651.328,-73.85477,101.8672,0,0
10.63708,-16670.04,-514.6125,-600.6229,-2650.672,-78.75661,113.1123,0,0
10.68682,-16671.5,-510.5479,-606.0115,-2645.355,-73.35033,111.5495,0,0
10.68682,-16672.8,-531.6329,-585.6901,-2645.366,-50.92578,101.564,0,0
10.73657,-16614.28,-569.7189,-552.382,-2640.613,-61.49788,130.015,0,0
10.73657,-16627.61,-531.0118,-567.924,-2636.673,-84.29091,117.4783,0,0
10.76973,-16628.46,-556.579,-522.2358,-2633.382,-77.05923,116.7906,0,0
10.81947,-16588.8,-542.6862,-529.4736,-2635.042,-76.76759,109.6651,0,0
10.81947,-16585.9,-531.8591,-534.0084,-2631.641,-77.63726,107.8718,0,0
10.86921,-16605.68,-546.6797,-538.6725,-2628.817,-92.68855,115.4241,0,0
10.90237,-16629.56,-514.6436,-629.8288,-2622.023,-97.51552,115.7095,0,0
10.91895,-16611.16,-526.5775,-648.5157,-2616.648,-91.45865,113.474,0,0
10.95211,-16594.85,-523.4127,-583.9822,-2612.381,-95.91848,109.3115,0,0
10.95211,-16580.24,-498.7304,-626.4929,-2604.55,-90.69775,127.4988,0,0
11.00185,-16565.92,-493.0866,-589.1276,-2602.878,-98.02034,157.4913,0,0
11.00185,-16588.45,-493.1735,-621.4184,-2610.365,-95.54526,153.2472,0,0
11.05159,-16572.74,-502.0807,-619.4528,-2615.988,-100.8092,152.1589,0,0
11.08475,-16604.25,-459.0079,-623.3938,-2620.177,-90.94025,150.4461,0,0
11.08475,-16576.64,-446.0306,-618.5598,-2627.697,-83.35814,168.7564,0,0
11.13449,-16575.85,-423.9983,-633.611,-2620.03,-83.91634,156.1062,0,0
11.13449,-16556.89,-399.5111,-576.3403,-2609.623,-92.92215,161.0501,0,0
11.18423,-16555.1,-414.1836,-566.8611,-2610.441,-106.4366,158.9622,0,0
11.18423,-16546.55,-428.8844,-567.4092,-2597.702,-118.9416,151.4984,0,0
11.21739,-16514.05,-408.1142,-615.512,-2601.203,-136.1861,143.5391,0,0
11.23397,-16523.13,-408.9712,-613.5013,-2599.408,-133.7596,118.3267,0,0
11.26713,-16524.18,-409.761,-681.6928,-2602.427,-133.1777,165.5422,0,0
11.31688,-16539.02,-409.3822,-640.6316,-2595.834,-48.43754,113.5614,0,0
11.31688,-16489.09,-426.9353,-535.9664,-2595.192,-18.55385,150.8165,0,0
11.36662,-16476.1,-421.6129,-495.8508,-2590.247,18.28178,148.8499,0,0
11.36662,-16475.94,-463.0362,-489.7384,-2590.883,38.20638,152.3073,0,0
11.39978,-16487.82,-492.5143,-483.0765,-2591.36,41.54843,133.8776,0,0
11.44952,-16479,-528.2864,-567.9444,-2591.715,-1.863957,156.3403,0,0
11.44952,-16484.27,-472.4189,-554.295,-2600.839,-37.75319,145.53,0,0
11.53242,-16513.62,-436.2581,-537.2501,-2598.93,-63.91071,147.7669,0,0
11.549,-16527,-394.2257,-515.4269,-2593.012,-104.4303,152.2345,0,0
11.58216,-16529.24,-397.6455,-505.5013,-2588.471,-101.8452,134.8595,0,0
11.58216,-16550.66,-397.0779,-510.2405,-2580.563,-108.6404,127.1127,0,0
11.6319,-16541.31,-422.2537,-517.3263,-2587.823,-101.0046,122.8783,0,0
11.68164,-16546.09,-461.5352,-541.6937,-2588.951,-100.0675,125.2187,0,0
11.68164,-16545.09,-488.2564,-522.7318,-2594.246,-87.64891,122.8921,0,0
11.7148,-16521.95,-497.5441,-510.516,-2593.854,-104.1378,145.5216,0,0
11.76445,-16496.31,-500.113,-548.9101,-2593.543,-118.906,163.386,0,0
11.76445,-16510.95,-524.1248,-549.5198,-2588.863,-126.7866,153.7426,0,0
11.81465,-16478.83,-501.3596,-540.0287,-2589.712,-140.7355,177.899,0,0
11.84782,-16475.26,-457.242,-535.0112,-2599.224,-148.2262,220.1255,0,0
11.86443,-16483.58,-438.982,-584.388,-2602.052,-143.0074,287.7249,0,0
11.89761,-16462.22,-467.1509,-586.6703,-2599.757,-119.7695,275.4532,0,0
11.94738,-16469.13,-449.9307,-517.4414,-2593.547,-128.4938,303.4364,0,0
11.94738,-16560.84,-431.2321,-504.4061,-2597.649,-179.9535,305.694,0,0
11.99715,-16605.35,-369.3479,-553.2564,-2591.912,-171.2394,388.2465,0,0
12.03033,-16624.72,-386.4282,-569.6077,-2596.381,-246.3727,582.5074,0,0
12.0801,-16598.22,-391.9115,-580.9767,-2586.498,-442.5908,711.208,0,0
12.0801,-16490.15,-442.7756,-651.6509,-2587.805,-397.9032,719.6638,0,0
12.12987,-16431.78,-486.1625,-724.3665,-2579.953,-330.0909,622.8012,0,0
12.16305,-16447.06,-566.9249,-774.1136,-2587.261,-234.7986,437.2819,0,0
12.21282,-16440.03,-588.6025,-733.0623,-2588.434,-208.1712,353.5837,0,0
12.26259,-16499.01,-533.9846,-699.0504,-2593.769,-236.1327,359.1465,0,0
12.29577,-16500.94,-542.9536,-744.7524,-2588.983,-271.7677,360.2126,0,0
12.31236,-16507.92,-547.4242,-759.4494,-2580.891,-351.9767,413.2313,0,0
12.34554,-16519.86,-527.4016,-795.8109,-2570.286,-400.2248,444.1519,0,0
12.34554,-16533.36,-490.898,-860.8809,-2566.645,-391.5065,411.565,0,0
12.39531,-16520.33,-458.4857,-910.1373,-2572.771,-396.2709,462.8288,0,0
12.42848,-16501.42,-431.5003,-875.1926,-2573.067,-377.0318,441.3733,0,0
12.49483,-16507.97,-415.3786,-965.3297,-2573.326,-336.7147,429.113,0,0
12.49483,-16469.76,-443.0571,-886.2912,-2577.985,-311.117,384.0563,0,0
12.59438,-16469.36,-436.6234,-940.4935,-2577.139,-330.3766,392.9379,0,0
12.64414,-16475.75,-450.6095,-968.1108,-2580.941,-342.9594,384.1136,0,0
12.64414,-16500.63,-415.9406,-985.3096,-2579.43,-352.905,402.1944,0,0
12.67732,-16446.55,-403.9182,-1022.22,-2578.284,-340.0499,397.6337,0,0
12.69391,-16442.9,-411.4736,-1042.045,-2572.989,-266.8534,341.6894,0,0
12.72709,-16460.17,-450.6107,-1089.767,-2577.823,-217.4311,297.222,0,0
12.77686,-16472.34,-454.0088,-1083.444,-2577.105,-190.7625,261.0923,0,0
12.77686,-16445.14,-448.8652,-1053.522,-2581,-205.3922,285.9847,0,0
12.81004,-16459.85,-458.2414,-1114.205,-2575.124,-186.5167,223.2088,0,0
12.90958,-16456.77,-427.7528,-1076.876,-2570.642,-177.1982,226.1068,0,0
12.90958,-16443.39,-431.0652,-1151.846,-2580.531,-130.6219,203.9375,0,0
12.95936,-16455.38,-366.0835,-1155.348,-2574.811,-68.63589,190.5845,0,0
12.95936,-16472.38,-371.927,-1152.904,-2579.309,13.60237,178.4582,0,0
12.99253,-16451.06,-414.2506,-1149.275,-2582.757,58.27669,167.5595,0,0
13.0423,-16471.35,-446.7306,-1090.5,-2576.53,34.78701,140.1605,0,0
13.0423,-16462.53,-472.7001,-1057.25,-2576.204,-43.85031,179.936,0,0
13.09207,-16445.83,-455.9578,-1063.589,-2575.966,-122.1228,192.3768,0,0
13.09207,-16424.25,-467.4843,-1069.224,-2575.793,-138.4281,175.2579,0,0
13.12526,-16426.67,-447.4554,-1106.453,-2575.672,-129.1185,171.2603,0,0
13.22479,-16453,-486.4006,-1079.176,-2566.727,-78.33405,175.9207,0,0
13.2741,-16465.44,-528.313,-1089.005,-2568.771,-39.66564,194.3865,0,0
13.2741,-16463.88,-528.0907,-1118.375,-2570.361,-19.49362,203.1496,0,0
13.30728,-16482.64,-497.8327,-1085.11,-2567.166,-11.85388,220.7936,0,0
13.30728,-16468.17,-484.5393,-1074.884,-2560.314,-38.73555,222.2013,0,0
13.35706,-16452.65,-468.7631,-1074.583,-2559.539,-78.95126,224.1857,0,0
13.35706,-16449.66,-456.6657,-1101.836,-2567.849,-66.95351,205.8315,0,0
13.40683,-16411.97,-469.5709,-1088.096,-2565.367,-54.32412,209.8862,0,0
13.44001,-16447.48,-457.2769,-1177.06,-2563.49,1.972121,174.3087,0,0
13.4566,-16419.32,-524.3131,-1127.336,-2562.079,14.03372,166.6243,0,0
13.48979,-16455.47,-524.5345,-1103.388,-2561.026,-11.66408,156.2114,0,0
13.53956,-16426.66,-513.4849,-1154.64,-2555.818,-59.27175,148.7094,0,0
13.53956,-16448.98,-494.947,-1142.61,-2551.87,-108.2972,117.9635,0,0
13.58934,-16450.59,-511.7141,-1102.113,-2557.757,-143.6072,102.439,0,0
13.62252,-16475.1,-482.3625,-1111.936,-2553.432,-164.1779,100.5303,0,0
13.62252,-16466.13,-424.4195,-1101.562,-2563.453,-159.2948,104.3278,0,0
13.67229,-16459.24,-407.8679,-1130.04,-2571.139,-180.0843,101.392,0,0
13.72206,-16448.42,-395.347,-1148.324,-2563.725,-159.8361,35.68781,0,0
13.75525,-16480.04,-395.904,-1110.028,-2566.922,-166.9364,39.76905,0,0
13.77184,-16525.24,-380.9839,-1125.999,-2564.942,-168.1021,29.67739,0,0
13.80502,-16535.33,-383.0426,-1051.663,-2572.297,-166.1122,28.67837,0,0
13.85479,-16517.4,-383.6849,-1000.311,-2569.057,-161.1631,31.57748,0,0
13.90457,-16519.06,-420.8969,-935.6614,-2557.712,-167.8132,70.6697,0,0
13.90457,-16510.24,-406.2506,-936.3047,-2562.344,-182.5029,127.6711,0,0
13.93775,-16496.75,-419.5041,-949.2595,-2570.335,-161.2222,151.711,0,0
13.98752,-16480.83,-397.5853,-977.134,-2567.585,-150.6759,200.8571,0,0
13.98752,-16479.71,-384.2337,-1001.952,-2556.617,-113.205,230.3371,0,0
14.0373,-16529.79,-397.4084,-1022.147,-2557.107,-55.76311,211.7384,0,0
14.07048,-16562.48,-403.16,-990.0052,-2561.938,-26.09044,220.0792,0,0
14.12026,-16536.35,-383.2685,-990.9799,-2565.648,-26.04925,241.5571,0,0
14.12026,-16514,-352.6475,-1023.95,-2564.058,-31.51217,248.679,0,0
14.17003,-16487.96,-351.5425,-1031.484,-2571.709,-29.53168,248.6794,0,0
14.20321,-16494.61,-329.8257,-1070.482,-2564.26,-48.43235,260.4084,0,0
14.2198,-16456.48,-336.6805,-1064.796,-2562.993,-25.93666,213.2471,0,0
14.25298,-16469.46,-349.8746,-1086.951,-2557.6,-17.20943,212.2337,0,0
14.30276,-16436.24,-344.6168,-1096.034,-2553.49,-27.3434,221.9136,0,0
14.33593,-16455.22,-348.4985,-1077.368,-2550.372,-38.03656,202.6505,0,0
14.38571,-16476.48,-374.87,-1046.37,-2543.588,-47.46164,172.6317,0,0
14.38571,-16473.93,-378.5105,-1086.877,-2542.874,-105.7374,171.008,0,0
14.46866,-16504.12,-379.1352,-1134.404,-2542.375,-117.6346,144.6005,0,0
14.50184,-16485.09,-407.3571,-1099.683,-2546.47,-107.5648,128.0796,0,0
14.50184,-16473.83,-396.8188,-1157.172,-2545.209,-83.19525,110.5771,0,0
14.55162,-16481.85,-375.4609,-1124.504,-2544.278,-43.78244,102.0505,0,0
14.56821,-16472.48,-385.7499,-1093.794,-2561.326,-30.60906,93.48384,0,0
14.60139,-16466.43,-399.195,-1066.88,-2561.079,-19.27343,83.78917,0,0
14.60139,-16455.19,-426.1013,-1018.571,-2565.314,-34.28994,94.01469,0,0
14.65116,-16453.29,-421.1545,-990.5502,-2568.542,-31.77446,82.89995,0,0
14.6675,-16456.33,-391.8336,-1014.684,-2570.99,-60.97768,97.83583,0,0
14.6675,-16456.49,-381.5876,-1033.264,-2563.976,-73.40343,71.46666,0,0
14.75071,-16484.35,-388.186,-1016.525,-2558.596,-89.56835,89.964,0,0
14.7673,-16461.36,-315.7162,-1056.971,-2550.049,-82.80125,11.48582,0,0
14.81707,-16499.17,-343.5068,-1045.831,-2552.392,-63.7553,-2.037707,0,0
14.86685,-16489.3,-378.1978,-1030.67,-2545.341,-49.47818,-32.83345,0,0
14.88343,-16516.05,-374.879,-1064.531,-2548.838,-23.37553,-57.41312,0,0
14.91661,-16508.74,-425.5479,-1094.856,-2551.538,6.738172,-119.8468,0,0
14.91661,-16504.19,-450.9642,-1030.456,-2553.621,35.98097,-220.0027,0,0
14.98298,-16476.27,-500.1938,-936.8887,-2555.226,86.93082,-295.9373,0,0
15.01617,-16449.37,-509.942,-864.4112,-2552.028,64.10809,-370.3582,0,0
15.06594,-16447.68,-494.9895,-844.7967,-2549.593,83.18957,-426.5992,0,0
15.14889,-16442.04,-481.1143,-822.4774,-2552.176,96.66166,-474.1051,0,0
15.19867,-16455.52,-513.5286,-749.3712,-2554.165,123.2718,-559.1831,0,0
15.24843,-16542.34,-532.5755,-692.9148,-2551.262,171.2513,-670.6761,0,0
15.24843,-16539.97,-563.5109,-593.916,-2553.482,137.1821,-652.9249,0,0
15.29821,-16522.5,-610.1373,-564.4553,-2555.188,99.10893,-613.0522,0,0
15.29821,-16493.52,-662.0388,-515.1431,-2547.633,112.3625,-625.3723,0,0
15.33139,-16500.11,-689.0765,-426.3237,-2555.161,130.557,-590.73,0,0
15.34798,-16492.93,-687.0704,-378.3083,-2552.064,161.9223,-546.0316,0,0
15.38117,-16485.21,-699.4186,-290.6863,-2554.131,207.1917,-550.2935,0,0
15.43094,-16495.91,-712.7872,-207.2204,-2551.285,249.4485,-533.6437,0,0
15.43094,-16483.04,-719.1794,-141.4612,-2549.115,253.042,-477.5256,0,0
15.5139,-16458.78,-759.017,-138.0775,-2547.466,272.1943,-420.7169,0,0
15.5139,-16490.13,-767.899,-98.18319,-2550.653,280.2549,-408.6878,0,0
15.56367,-16504.15,-787.4312,-33.66908,-2544.238,290.3562,-368.9588,0,0
15.61345,-16491.58,-805.1329,-31.2442,-2543.781,284.0221,-359.3691,0,0
15.61345,-16499.66,-801.4827,32.28493,-2534.591,275.3935,-355.1668,0,0
15.64663,-16486.99,-808.1121,49.47677,-2536.46,249.8215,-314.9518,0,0
15.66322,-16492.79,-824.8427,15.72406,-2533.497,241.5473,-299.3336,0,0
15.6964,-16473.96,-849.2978,55.01524,-2544.563,236.5854,-348.8403,0,0
15.74617,-16469.55,-909.5502,66.02348,-2539.756,210.9238,-336.4847,0,0
15.74617,-16451.8,-949.4655,142.9414,-2544.961,176.9655,-293.9693,0,0
15.77936,-16488.15,-936.0863,161.651,-2548.957,158.6246,-277.4875,0,0
15.82913,-16522.62,-915.2069,214.4791,-2538.723,180.5398,-249.4056,0,0
15.82913,-16475.8,-946.2771,260.1489,-2539.773,215.7813,-255.7102,0,0
15.8789,-16402.32,-971.6633,330.2192,-2545.029,241.7618,-260.628,0,0
15.92868,-16390.56,-979.3778,323.6164,-2540.198,247.5823,-193.0137,0,0
15.92868,-16383.99,-989.0881,343.7078,-2545.379,227.164,-157.812,0,0
15.96186,-16385.82,-1004.77,357.6841,-2544.919,190.5932,-147.2224,0,0
16.01163,-16384.11,-1012.835,390.2871,-2544.573,142.0275,-105.6353,0,0
16.01163,-16361.94,-1050.533,458.1994,-2539.882,75.53407,-58.39688,0,0
16.06141,-16370.68,-1046.612,495.4565,-2540.739,9.039349,16.06522,0,0
16.09459,-16415.24,-1052.967,525.8503,-2532.546,-37.3694,76.88036,0,0
16.14437,-16376.33,-1041.729,524.4108,-2535.167,-68.30775,174.4955,0,0
16.16096,-16345.61,-1052.53,544.1005,-2537.199,-84.30516,227.8132,0,0
16.24341,-16342.26,-1032.574,501.3439,-2538.773,-142.5803,333.2698,0,0
16.27656,-16355.43,-1026.811,466.3385,-2535.561,-166.3716,388.1682,0,0
16.27656,-16323.61,-1038.601,572.5684,-2546.415,-206.9407,516.7332,0,0
16.32632,-16270.7,-1082.659,589.5558,-2545.857,-330.6412,685.4063,0,0
16.32632,-16342.43,-995.1418,368.7435,-2545.425,-468.9965,866.4709,0,0
16.37608,-16540.44,-804.899,66.14165,-2545.091,-435.5092,809.654,0,0
16.37608,-16588.72,-791.2614,39.54628,-2544.832,-315.18,623.5676,0,0
16.42584,-16539.98,-874.0977,55.9556,-2549.063,-270.2243,507.9876,0,0
16.45901,-16474.71,-868.8547,115.2127,-2552.292,-288.9453,497.7026,0,0
16.45901,-16462.29,-864.8655,118.5037,-2537.02,-301.2982,460.1103,0,0
16.50877,-16477.1,-828.6101,111.0595,-2538.638,-298.2546,423.6282,0,0
16.55853,-16490.55,-822.0155,134.186,-2535.46,-262.1372,379.2636,0,0
16.55853,-16480.8,-815.985,195.0655,-2533.047,-258.4177,394.0881,0,0
16.5917,-16445.54,-828.1186,131.8323,-2535.656,-243.2577,401.8826,0,0
16.64146,-16435.17,-814.243,113.3101,-2528.808,-204.9946,385.7483,0,0
16.64146,-16448.29,-840.3013,110.2351,-2532.46,-192.3562,376.0067,0,0
16.69122,-16426.21,-823.7529,76.89697,-2535.279,-213.5061,360.4062,0,0
16.72439,-16442.57,-821.1446,102.4414,-2524.158,-232.5159,348.9636,0,0
16.77415,-16481.7,-752.7727,110.9678,-2520.114,-257.0555,363.4602,0,0
16.77415,-16493.84,-729.4744,-12.09424,-2525.927,-256.1517,383.3982,0,0
16.82391,-16479.76,-768.4251,-58.37315,-2530.408,-226.646,358.7286,0,0
16.87367,-16441.2,-753.0129,-67.92315,-2524.996,-231.5471,392.4821,0,0
16.90685,-16441.62,-768.0089,-77.04506,-2516.451,-235.9287,403.0507,0,0
16.90685,-16443.06,-769.6835,-32.66546,-2518.82,-297.5192,429.6476,0,0
16.9566,-16455.26,-744.5278,-51.5817,-2520.674,-342.6808,454.348,0,0
17.00636,-16466.8,-703.3109,-74.62158,-2517.697,-363.5424,456.5099,0,0
17.00636,-16463.41,-707.4887,-135.1232,-2524.318,-377.6805,488.2367,0,0
17.03954,-16475.18,-710.9492,-161.0397,-2520.547,-335.4261,453.0926,0,0
17.0893,-16475.28,-693.8973,-130.5284,-2517.689,-303.8466,439.6922,0,0
17.0893,-16508.53,-672.2443,-75.74364,-2515.534,-339.802,554.8799,0,0
17.13906,-16532.75,-592.8223,-232.9491,-2509.49,-352.6198,566.0949,0,0
17.18882,-16464.71,-631.0785,-305.0745,-2504.913,-281.7935,505.7337,0,0
17.22199,-16460.23,-682.8843,-287.5454,-2510.328,-260.1039,461.0862,0,0
17.22199,-16455.7,-669.5914,-280.1057,-2505.653,-310.7162,483.7103,0,0
17.27175,-16474.4,-608.6878,-321.4349,-2510.987,-359.799,498.2593,0,0
17.32151,-16466.53,-534.7245,-345.7596,-2515.105,-364.4003,476.1417,0,0
17.35468,-16476,-568.3443,-332.6721,-2509.42,-390.3387,489.7166,0,0
17.40444,-16484.33,-512.5211,-374.0933,-2509.533,-402.1047,505.3993,0,0
17.42103,-16436.37,-470.2992,-428.3851,-2509.654,-426.274,499.9626,0,0
17.4542,-16429.63,-462.9346,-421.5417,-2514.208,-456.5792,499.4312,0,0
17.50396,-16424.54,-439.0402,-499.7758,-2517.713,-486.5469,509.8717,0,0
17.50396,-16451.74,-415.8072,-557.7066,-2520.407,-483.5291,514.0228,0,0
17.53713,-16467.05,-430.7678,-543.5037,-2513.609,-479.6605,518.9008,0,0
17.58689,-16475.43,-409.5421,-540.6235,-2512.854,-479.6057,549.8167,0,0
17.63665,-16449.68,-390.5393,-594.104,-2516.725,-455.3533,539.4033,0,0
17.63665,-16487.59,-394.2999,-662.9626,-2519.698,-404.3438,509.5713,0,0
17.66982,-16494.4,-337.9025,-720.2185,-2513.114,-320.2454,466.3405,0,0
17.76935,-16472.94,-283.1815,-731.9528,-2516.952,-269.7341,470.5683,0,0
17.81911,-16462.03,-281.905,-837.3696,-2519.897,-202.6847,443.2753,0,0
17.81911,-16499.09,-301.5718,-809.383,-2517.72,-155.5264,440.6587,0,0
17.86886,-16493.04,-300.6314,-816.7537,-2511.627,-97.93707,406.2608,0,0
17.90204,-16491.67,-303.8205,-803.6062,-2515.842,-75.12592,398.2913,0,0
17.90204,-16450.67,-340.042,-789.2401,-2523.509,-50.99776,339.6723,0,0
17.9518,-16495.77,-322.7856,-799.5087,-2516.075,-29.76579,309.7039,0,0
17.9518,-16473.73,-332.1748,-771.0594,-2514.822,-45.94313,274.0359,0,0
18.08449,-16517.77,-324.2538,-809.4585,-2509.44,-36.96504,246.2579,0,0
18.13425,-16490.44,-303.075,-856.897,-2509.773,-43.89105,240.9071,0,0
18.16742,-16498.28,-342.6726,-841.3967,-2518.911,-20.57652,167.6945,0,0
18.16742,-16502,-314.5849,-783.3285,-2517.042,-32.01942,167.8542,0,0
18.21718,-16503.68,-310.0512,-784.7955,-2520.045,-44.26489,171.8197,0,0
18.21718,-16500.47,-346.8076,-788.6738,-2526.77,-30.4841,127.702,0,0
18.26694,-16501.28,-350.8202,-777.8036,-2518.604,-20.60429,148.4863,0,0
18.26694,-16459.74,-346.3553,-755.697,-2512.351,-24.79098,134.969,0,0
18.30011,-16490.03,-334.2899,-742.7913,-2516.441,-23.37614,127.3188,0,0
18.34987,-16473.31,-343.0088,-755.8169,-2510.713,-41.47313,138.5538,0,0
18.34987,-16491.54,-337.6978,-747.6981,-2519.639,-51.18396,113.5138,0,0
18.44939,-16547.56,-305.0284,-730.0757,-2522.037,-63.29704,103.9385,0,0
18.44939,-16512.75,-342.3176,-693.0506,-2515,-153.0917,180.9786,0,0
18.48256,-16546.96,-281.3008,-791.9335,-2514.051,-174.7446,176.7932,0,0
18.48256,-16503.21,-293.5933,-845.1011,-2504.47,-148.6024,156.9379,0,0
18.53232,-16501.81,-311.0136,-783.3981,-2510.459,-129.9652,149.7663,0,0
18.58208,-16507.35,-284.6691,-766.8499,-2501.766,-96.90161,160.063,0,0
18.58208,-16508.23,-290.2261,-774.9636,-2504.007,-56.46847,146.5835,0,0
18.665,-16505.54,-337.9078,-766.5065,-2492.458,-36.79248,139.0122,0,0
18.665,-16500.12,-301.3989,-803.002,-2496.961,-58.24804,160.0633,0,0
18.71476,-16469.37,-273.6222,-819.5613,-2504.881,-66.26733,137.8822,0,0
18.74794,-16455.84,-268.097,-782.0603,-2502.101,-79.47895,129.9989,0,0
18.76452,-16463.3,-262.9927,-774.1724,-2504.429,-81.67133,132.7918,0,0
18.7977,-16456.89,-255.9942,-794.5293,-2510.659,-77.90767,135.7077,0,0
18.7977,-16474.21,-234.2552,-808.7802,-2502.138,-59.0629,124.02,0,0
18.84745,-16479.75,-267.7364,-775.1302,-2513.361,-44.496,121.1072,0,0
18.84745,-16495.08,-292.4454,-720.4059,-2508.654,-46.2482,119.369,0,0
18.93039,-16490.18,-307.0454,-746.0628,-2509.487,-72.94527,124.0613,0,0
18.94697,-16496.39,-282.8456,-752.3375,-2518.99,-84.8825,106.2365,0,0
18.98014,-16508.87,-309.8603,-700.5561,-2517.385,-99.3329,130.1932,0,0
18.99673,-16509.52,-292.9331,-688.6426,-2516.141,-87.14463,123.7588,0,0
19.01331,-16494.45,-288.925,-697.3118,-2510.747,-83.94443,158.0369,0,0
19.04648,-16502.84,-272.6573,-710.6384,-2506.619,-61.87528,147.5136,0,0
19.04648,-16491.51,-282.4857,-698.6945,-2499.039,-52.27248,156.99,0,0
19.07965,-16480.62,-280.1388,-690.6927,-2497.696,-39.76982,169.5669,0,0
19.11283,-16491.13,-274.0085,-725.6075,-2496.699,-50.82669,179.4996,0,0
19.14601,-16501.39,-302.6557,-734.5839,-2500.398,-36.68474,170.2115,0,0
19.14601,-16510.33,-317.9771,-718.1406,-2494.39,-16.8467,149.8287,0,0
19.17917,-16527.1,-305.3316,-666.7663,-2498.686,-41.43054,160.0479,0,0
19.22893,-16528.78,-295.6742,-669.6381,-2497.566,-63.95648,175.669,0,0
19.22893,-16496.74,-270.6013,-711.817,-2501.164,-79.03154,192.0634,0,0
19.27869,-16486.62,-278.0941,-744.1066,-2495.07,-88.64026,189.9012,0,0
19.32845,-16491.07,-281.6957,-729.9744,-2494.862,-92.1017,188.7699,0,0
19.32845,-16474.54,-290.0596,-714.6775,-2494.729,-101.3732,196.4639,0,0
19.36162,-16460.83,-280.9979,-755.0256,-2494.653,-80.17685,172.1252,0,0
19.41138,-16458.17,-291.8469,-753.6921,-2494.619,-64.23045,183.4178,0,0
19.44455,-16485.01,-306.834,-738.1771,-2485.753,-17.72244,150.2351,0,0
19.46114,-16487.85,-295.0415,-734.0012,-2479.007,-27.96054,206.0435,0,0
19.49431,-16468.98,-282.7127,-752.922,-2482.76,-23.17934,189.1642,0,0
19.52743,-16471.2,-293.2652,-778.4069,-2494.541,-21.58107,174.2781,0,0
19.52743,-16444.14,-304.6926,-777.8433,-2494.712,-29.06367,171.7558,0,0
19.52743,-16442.35,-315.6537,-744.0498,-2490.425,-34.33556,164.3043,0,0
19.52743,-16484.29,-336.2023,-712.5948,-2482.733,-39.00462,155.0338,0,0
19.52743,-16518.61,-316.4091,-730.6431,-2485.744,-55.10556,168.4852,0,0
19.52743,-16531.52,-323.3836,-753.3166,-2479.218,-51.66903,139.7553,0,0
19.52743,-16565.66,-316.497,-766.1847,-2474.264,-60.69791,140.0005,0,0
19.52743,-16548.41,-326.7108,-769.302,-2474.955,-73.43251,142.7629,0,0
19.52743,-16558.33,-364.3967,-751.6571,-2475.533,-82.88108,142.1796,0,0
19.52743,-16525.89,-360.9937,-698.2211,-2480.45,-92.00814,156.4797,0,0
19.52743,-16519.83,-335.0072,-688.4091,-2479.815,-102.8086,186.5695,0,0
19.52743,-16514.03,-338.3246,-649.9811,-2483.789,-89.94267,171.3472,0,0
19.86077,-16520.63,-321.9781,-658.4115,-2473.558,-74.50025,171.0426,1,0
19.86077,-16489.09,-341.5759,-677.2111,-2479.059,-60.72497,186.3155,1,0
19.86077,-16514.82,-345.4458,-640.7518,-2478.867,-42.16668,179.1381,1,0
19.86077,-16500.15,-359.4231,-652.902,-2469.883,-57.65437,198.548,1,0
19.92711,-16494.46,-355.6304,-701.1252,-2471.912,-62.88994,175.9566,1,0
19.97687,-16511.17,-371.4797,-711.4861,-2477.936,-68.84725,178.0375,1,0
20.02663,-16490.71,-359.1311,-747.1125,-2478.138,-62.60273,176.5721,1,0
20.02663,-16467.32,-315.2569,-753.2566,-2491.607,-66.41704,184.5815,1,0
20.05927,-16439.53,-281.6941,-745.679,-2484.182,-84.01663,210.0742,1,0
20.10903,-16477.1,-302.6326,-718.7556,-2482.933,-65.32494,197.1048,1,0
20.15877,-16495.95,-320.9343,-743.5555,-2481.985,-80.09814,216.2041,1,0
20.15877,-16539.18,-307.2599,-734.786,-2490.131,-85.56396,201.6557,1,0
20.24168,-16506.81,-312.3381,-752.4038,-2483.065,-86.10749,205.1415,1,0
20.24168,-16529.65,-330.6529,-725.9338,-2477.662,-76.7901,190.0274,1,0
20.29143,-16493.89,-350.1956,-732.2416,-2477.976,-83.21055,187.2979,1,0
20.34118,-16488.68,-358.4474,-720.4284,-2478.234,-74.24883,171.0718,1,0
20.34118,-16481.39,-360.2533,-744.6208,-2478.448,-78.18071,173.0766,1,0
20.37434,-16470.31,-343.8303,-753.1205,-2474.195,-70.09705,161.3394,1,0
20.42409,-16440.85,-364.4521,-754.0184,-2470.963,-67.23474,162.3704,1,0
20.42409,-16449.44,-376.8343,-770.1458,-2468.518,-84.44015,152.4017,1,0
20.47383,-16478.28,-352.9721,-793.4687,-2466.681,-81.5201,145.6636,1,0
20.507,-16503.72,-366.7811,-746.9207,-2465.312,-79.8158,116.7631,1,0
20.52358,-16491.04,-324.1034,-736.7242,-2468.732,-96.7726,121.0855,1,0
20.55674,-16502.37,-337.9822,-757.7115,-2475.81,-71.75764,51.95667,1,0
20.60649,-16534.29,-370.7598,-758.2145,-2481.24,-64.24196,34.20113,1,0
20.63965,-16537.58,-362.5403,-759.6519,-2476.531,-75.40498,13.43489,1,0
20.65611,-16517.85,-341.7863,-744.0795,-2472.933,-103.058,-4.34232,1,0
20.6894,-16549.21,-382.387,-703.3369,-2474.624,-108.9298,-42.24057,1,0
20.73915,-16534.33,-353.5508,-658.9287,-2471.499,-113.9001,-41.47003,1,0
20.78889,-16511.78,-329.2272,-632.8629,-2477.987,-88.81591,-67.89193,1,0
20.82206,-16525.5,-333.8979,-567.7189,-2478.524,-82.8801,-46.13391,1,0
20.83864,-16540.39,-324.1989,-612.3781,-2478.935,-67.24978,-16.36424,1,0
20.87181,-16531.77,-300.1957,-623.5587,-2474.817,-46.1726,-19.87851,1,0
20.92155,-16527.32,-370.5361,-568.0756,-2471.673,-9.064263,-65.22543,1,0
20.92155,-16513.9,-396.623,-525.9213,-2469.282,-24.84828,-50.56297,1,0
20.97168,-16539.05,-382.1208,-543.9058,-2458.609,-7.139172,-63.67577,1,0
20.97168,-16546.06,-369.8158,-541.4045,-2459.344,14.85461,-90.01043,1,0
21.02146,-16524.76,-414.6178,-507.6948,-2455.515,32.33069,-107.8687,1,0
21.05463,-16508.41,-412.2032,-461.2285,-2448.2,27.20732,-104.8132,1,0
21.10439,-16470.43,-421.2854,-472.6591,-2447.092,-0.1807315,-96.57413,1,0
21.13755,-16493.52,-442.4808,-448.6052,-2446.305,15.28102,-141.7347,1,0
21.15414,-16499.05,-465.1551,-405.1689,-2445.762,-0.4528727,-126.6064,1,0
21.18731,-16525.47,-485.5957,-397.928,-2449.836,0.6847177,-129.9036,1,0
21.23706,-16504.67,-471.0569,-454.9468,-2448.568,20.56006,-138.4585,1,0
21.28682,-16503.16,-495.1451,-397.0488,-2443.211,41.44781,-141.8984,1,0
21.28682,-16524.17,-544.3343,-328.8234,-2443.597,48.94479,-105.7058,1,0
21.31999,-16538.01,-559.4668,-287.1677,-2448.375,51.44325,-77.76744,1,0
21.36974,-16495.37,-561.8009,-275.8913,-2447.639,65.07471,-63.42894,1,0
21.36974,-16463.86,-593.1248,-249.092,-2451.544,66.43753,-65.36205,1,0
21.4195,-16460.9,-575.6928,-265.8236,-2458.99,46.22903,-28.24251,1,0
21.45267,-16480.9,-526.533,-303.6225,-2469.13,72.15383,-71.8181,1,0
21.50243,-16455.28,-562.889,-289.8521,-2472.445,106.7618,-86.23855,1,0
21.50243,-16435.79,-579.3492,-241.032,-2470.527,95.88046,-99.90926,1,0
21.55218,-16454.25,-590.5233,-239.6857,-2460.177,90.0899,-121.2898,1,0
21.58535,-16469.59,-654.1391,-161.6643,-2465.552,53.05101,-140.7775,1,0
21.63511,-16458.14,-659.1819,-206.7677,-2469.662,3.539633,-156.0115,1,0
21.63511,-16464.97,-663.7018,-165.4281,-2463.931,-13.5789,-168.5197,1,0
21.68486,-16473.58,-652.3262,-111.141,-2468.403,-33.55,-167.0169,1,0
21.73462,-16500.16,-644.34,-120.149,-2458.522,-20.21145,-219.0577,1,0
21.73462,-16483.92,-697.7032,-80.07325,-2459.831,-12.42388,-226.1325,1,0
21.78438,-16450.46,-715.9561,-16.87399,-2456.411,-5.031587,-206.5356,1,0
21.81755,-16450.41,-736.1097,-28.02704,-2462.67,-15.13299,-185.6927,1,0
21.81755,-16459.32,-697.8757,-9.629702,-2467.464,23.15357,-182.7946,1,0
21.91706,-16450.7,-728.0487,43.57861,-2475.554,46.60707,-184.2403,1,0
21.91706,-16430.88,-695.3381,85.69205,-2481.719,65.01974,-161.6022,1,0
21.95023,-16478.98,-727.5751,66.08248,-2477.534,61.25566,-132.7743,1,0
21.96682,-16514.7,-747.4467,46.94402,-2478.731,94.53308,-141.3796,1,0
21.99999,-16512.05,-745.6381,114.6652,-2470.754,114.2811,-162.8443,1,0
22.04975,-16506.63,-749.4123,144.6393,-2469.066,110.6167,-146.7501,1,0
22.08292,-16504.63,-757.4734,136.8233,-2467.768,82.95428,-144.316,1,0
22.0995,-16495.31,-724.506,132.2643,-2457.908,69.12022,-151.244,1,0
22.13268,-16501.43,-753.2776,147.9788,-2450.379,50.95926,-129.8781,1,0
22.18243,-16491.69,-810.4366,138.2314,-2453.515,50.5817,-127.061,1,0
22.18243,-16462.06,-903.6151,250.8511,-2455.944,45.26833,-148.1483,1,0
22.23219,-16464.91,-946.6304,298.5201,-2462.255,-6.183134,-109.1128,1,0
22.26536,-16495.95,-896.8867,283.0999,-2462.661,-32.46336,-83.40569,1,0
22.31511,-16478.69,-859.3605,260.4513,-2454.113,-3.963386,-99.81296,1,0
22.31511,-16466.61,-863.4351,265.6046,-2452.023,6.86059,-91.92511,1,0
22.36487,-16476.23,-860.6041,275.4592,-2450.449,100.776,-153.7984,1,0
22.39804,-16440.41,-902.3665,314.4108,-2458.136,170.2948,-205.2384,1,0
22.41463,-16406.44,-894.0027,397.7454,-2450.738,193.8366,-212.2918,1,0
22.4478,-16435.99,-891.6151,381.9725,-2445.099,182.4135,-157.3814,1,0
22.49755,-16436.56,-896.048,407.8298,-2449.682,175.2843,-133.2681,1,0
22.54731,-16423.8,-920.1155,507.6452,-2439.924,155.9683,-117.2879,1,0
22.54731,-16462.88,-958.0734,546.4729,-2436.93,143.9999,-99.81908,1,0
22.58048,-16454.05,-977.7966,559.6168,-2439.12,123.8509,-81.52721,1,0
22.63024,-16491.64,-964.7048,557.5547,-2449.704,110.7899,-88.12429,1,0
22.63024,-16462.76,-1008.523,573.8235,-2453.392,114.2721,-86.89271,1,0
22.68037,-16430.69,-1028.262,588.6352,-2460.654,66.99619,-23.44369,1,0
22.71354,-16438.36,-978.5853,579.0859,-2452.909,52.97968,35.15514,1,0
22.71354,-16442.08,-1003.304,614.1041,-2446.987,75.53967,23.99944,1,0
22.76333,-16439.45,-1038.422,638.9007,-2451.336,78.13668,48.38082,1,0
22.8131,-16398.72,-1055.962,617.0892,-2445.813,76.243,78.88387,1,0
22.8131,-16380.98,-1030.119,651.6409,-2454.901,48.20556,104.0511,1,0
22.86274,-16357.61,-999.9499,616.3166,-2452.996,35.66635,98.78516,1,0
22.89605,-16327.76,-1023.06,651.6943,-2455.973,43.05174,66.3764,1,0
22.89605,-16336.21,-1031.539,675.8035,-2449.387,24.6818,107.4475,1,0
22.94581,-16345.16,-1057.618,674.6528,-2453.22,29.83527,141.5563,1,0
22.99558,-16352.22,-1060.572,699.6268,-2447.294,20.02497,158.3657,1,0
22.99558,-16385.52,-1060.237,617.1882,-2447.205,17.60787,150.8358,1,0
23.02876,-16435.48,-1000.907,485.976,-2442.722,85.1041,69.59958,1,0
23.07709,-16354.07,-1142.499,609.1112,-2448.177,156.392,20.7674,1,0
23.11171,-16133.49,-1381.112,822.5825,-2452.366,93.60287,24.01525,1,0
23.1283,-16297.61,-1263.649,785.6942,-2451.143,-23.77413,144.6833,1,0
23.17807,-16382.55,-1159.69,673.5658,-2450.21,-47.79128,143.9402,1,0
23.21124,-16306.94,-1184.895,681.3863,-2449.501,-42.09809,130.5709,1,0
23.21124,-16310.19,-1164.949,720.1302,-2453.397,-43.87182,123.3704,1,0
23.26101,-16364.94,-1175.866,758.1151,-2451.946,-51.09496,156.3762,1,0
23.34396,-16362.61,-1156.128,740.0684,-2446.405,-44.4844,166.0981,1,0
23.36055,-16319.9,-1211.582,726.8308,-2455.47,-40.88069,146.9082,1,0
23.39373,-16340.52,-1188.237,688.5333,-2453.54,-7.195903,112.291,1,0
23.39373,-16379.68,-1245.326,755.2388,-2447.628,2.349836,65.4041,1,0
23.4435,-16339.87,-1239.816,771.4846,-2456.406,-55.91283,114.7612,1,0
23.47668,-16390.35,-1257.311,755.7289,-2458.686,-93.12313,131.3478,1,0
23.47668,-16425.65,-1193.811,737.6914,-2451.554,-100.5659,140.5364,1,0
23.52645,-16407.15,-1168.172,735.6985,-2450.526,-82.99796,135.7405,1,0
23.57621,-16413.97,-1188.216,755.9864,-2454.176,-84.83298,140.1997,1,0
23.57621,-16429.09,-1147.932,729.0527,-2452.535,-63.31353,143.1593,1,0
23.62598,-16467.15,-1176.777,767.9645,-2460.141,-51.11596,151.0665,1,0
23.65916,-16470.62,-1179.837,827.3066,-2461.516,-41.93924,157.214,1,0
23.67575,-16462.01,-1213.009,853.4281,-2449.254,-56.70594,170.3183,1,0
23.70893,-16466.34,-1249.229,772.0998,-2439.875,-85.8984,189.8364,1,0
23.7587,-16476.14,-1254.476,763.8126,-2437.157,-94.22431,173.5191,1,0
23.7587,-16465.75,-1254.847,736.1581,-2439.543,-120.0741,198.4991,1,0
23.80847,-16475.37,-1217.159,762.4384,-2436.968,-109.7167,178.3359,1,0
23.84165,-16446.04,-1189.21,744.6628,-2439.461,-99.09175,201.2146,1,0
23.89142,-16431.25,-1175.441,724.2277,-2432.532,-71.40435,199.9537,1,0
23.89142,-16447.58,-1210.236,701.8145,-2431.698,-59.53024,173.8549,1,0
23.94118,-16422.36,-1218.992,731.1212,-2431.101,-49.27338,177.5548,1,0
23.97436,-16421.86,-1246.572,764.5137,-2439.544,-46.92923,168.3434,1,0
23.97436,-16400.43,-1270.785,764.4047,-2441.596,-72.80712,198.5726,1,0
24.02413,-16392.92,-1261.356,775.2125,-2443.178,-91.70829,174.4653,1,0
24.0739,-16426,-1245.038,689.1226,-2448.827,-118.2438,194.1206,1,0
24.10708,-16446.88,-1176.969,644.266,-2448.715,-90.47034,154.4652,1,0
24.12367,-16364.2,-1203.491,703.0947,-2444.192,-71.87071,140.3977,1,0
24.15685,-16387.44,-1197.137,706.0162,-2445.164,-73.3621,138.481,1,0
24.20662,-16431.88,-1192.217,711.5443,-2441.48,-72.23467,124.5477,1,0
24.20662,-16434.85,-1191.733,678.0681,-2438.67,-61.90697,103.6623,1,0
24.25639,-16424.88,-1205.727,758.8231,-2436.535,-68.65663,87.47187,1,0
24.30616,-16403.95,-1217.482,754.033,-2439.353,-85.14408,97.89739,1,0
24.32275,-16381.29,-1159.922,765.7389,-2437.092,-109.6044,132.272,1,0
24.32275,-16338.55,-1140.269,807.7804,-2426.517,-128.2067,145.8479,1,0
24.3891,-16345.89,-1116.453,798.7355,-2427.323,-148.1022,200.7954,1,0
24.42229,-16367.16,-1133.811,741.7469,-2423.548,-122.1451,190.9133,1,0
24.47205,-16383.55,-1146.09,747.8976,-2425.133,-96.04771,174.9056,1,0
24.47205,-16372.88,-1146.691,733.6989,-2426.385,-91.51421,183.8867,1,0
24.48864,-16420.17,-1180.442,722.7892,-2436.239,-94.36685,205.3383,1,1
24.53841,-16430.85,-1168.592,680.0842,-2439.361,-85.1459,218.8453,1,1
24.53841,-16390.22,-1175.03,686.2505,-2432.889,-63.38154,227.6303,1,1
24.60477,-16396.81,-1127.88,682.1822,-2441.243,-45.91344,243.3125,1,1
24.65454,-16427.35,-1166.101,635.9408,-2447.634,-17.09649,237.1075,1,1
24.65454,-16387.53,-1189.831,620.6581,-2448.076,-19.81242,247.9583,1,1
24.7043,-16403.61,-1224.565,640.1844,-2443.964,-44.16656,249.6969,1,1
24.73748,-16372.72,-1197.853,626.4844,-2431.943,-68.6844,228.9561,1,1
24.78725,-16383.47,-1191.74,647.1886,-2431.621,-82.74219,210.4496,1,1
24.78725,-16389.54,-1133.84,609.9838,-2426.963,-98.17412,204.7832,1,1
24.83702,-16355.44,-1159.395,679.1818,-2418.995,-102.9918,185.4255,1,1
24.87019,-16408.08,-1184.531,700.0633,-2426.234,-97.18248,175.2977,0,1
24.88678,-16426.21,-1200.423,634.0468,-2427.373,-100.7023,180.5704,0,1
24.91996,-16468.83,-1224.71,616.8631,-2428.268,-65.94057,127.5534,0,1
24.96973,-16447.02,-1254.264,652.6133,-2428.972,-75.89924,137.7644,0,1
25.0195,-16415.81,-1255.66,654.5776,-2433.96,-88.77996,141.2443,0,1
25.0195,-16431.77,-1249.904,641.7419,-2433.351,-80.05003,137.0643,0,1
25.05268,-16423.99,-1261.96,625.3553,-2432.89,-83.04477,143.9187,0,1
25.10196,-16395.84,-1254.4,605.1763,-2428.112,-61.77652,143.6917,0,1
25.11855,-16393.15,-1270.62,607.6138,-2420.039,-68.50971,152.995,0,1
25.15173,-16363.43,-1258.492,605.1978,-2422.755,-72.57098,152.399,0,1
25.20145,-16392.84,-1282.302,674.3937,-2424.862,-69.03693,146.4384,0,1
25.20145,-16335.63,-1309.208,700.7631,-2426.495,-98.46861,172.3859,0,1
25.2512,-16369.53,-1273.071,668.7998,-2427.761,-99.8968,150.9707,0,1
25.28436,-16372.3,-1280.709,681.9844,-2428.742,-98.43847,161.749,0,1
25.28436,-16360.08,-1278.652,624.466,-2429.501,-91.17635,163.9158,0,1
25.3341,-16341.95,-1265.86,635.9159,-2443.382,-86.13731,179.1471,0,1
25.38385,-16376.94,-1263.72,624.8108,-2440.69,-65.64326,165.8491,0,1
25.38385,-16369.42,-1234.297,686.1904,-2434.178,-62.44498,171.1749,0,1
25.41701,-16374.8,-1235.017,703.2177,-2433.621,-66.12598,178.8393,0,1
25.46675,-16393.35,-1220.043,688.4632,-2437.624,-61.493,168.0596,0,1
25.49992,-16374.31,-1255.127,701.4808,-2436.248,-77.64483,172.8183,0,1
25.49992,-16420.7,-1271.957,683.6688,-2439.618,-94.16185,164.2612,0,1
25.54952,-16436.2,-1229.352,687.7178,-2433.322,-104.5496,159.0999,0,1
25.5994,-16412.51,-1222.217,712.9293,-2424.071,-108.0065,152.1195,0,1
25.64914,-16368.85,-1206.806,714.4064,-2425.873,-95.9045,128.2525,0,1
25.64914,-16369.81,-1232.731,720.9763,-2422.839,-102.6635,159.9173,0,1
25.69888,-16370.61,-1249.251,695.986,-2420.54,-94.77051,148.7215,0,1
25.73205,-16372.38,-1254.101,693.4234,-2423.239,-101.7135,156.5234,0,1
25.73205,-16347.18,-1227.849,681.455,-2425.326,-107.8157,179.6823,0,1
25.78179,-16415.51,-1211.083,631.2963,-2435.8,-104.1227,177.7096,0,1
25.83153,-16434.52,-1209.374,640.6395,-2434.946,-79.094,146.8075,0,1
25.86469,-16411.31,-1234.705,697.7301,-2434.283,-74.3481,178.8536,0,1
25.86469,-16376.87,-1208.669,699.2925,-2429.337,-59.38653,181.7512,0,1
25.91444,-16372.69,-1226.45,715.9423,-2429.986,-62.67031,196.667,0,1
25.96418,-16378.4,-1243.394,720.8442,-2426.056,-75.48203,183.3636,0,1
25.96418,-16373.93,-1236.393,711.2053,-2423.059,-91.95567,179.2304,0,1
25.99734,-16408.21,-1234.34,671.6281,-2416.352,-86.54447,169.3909,0,1
26.04708,-16445.5,-1220.571,680.1249,-2406.818,-92.91628,186.7796,0,1
26.09683,-16410.77,-1216.699,682.2055,-2408.436,-79.21577,184.5408,0,1
26.09683,-16370.84,-1258.077,682.6915,-2405.291,-91.16862,231.8106,0,1
26.14657,-16386.85,-1235.409,730.6987,-2407.367,-77.59212,205.2674,0,1
26.17973,-16374.75,-1222.471,717.4918,-2413.432,-87.42865,222.2565,0,1
26.22948,-16383.25,-1200.399,623.1094,-2413.673,-88.85788,229.6144,0,0
26.22948,-16393.1,-1172.492,648.4797,-2418.314,-65.01412,199.9528,0,0
26.27922,-16381.81,-1197.785,641.4012,-2413.018,-70.34278,212.0915,0,0
26.31238,-16374.29,-1200.601,668.2028,-2408.988,-67.52882,209.4054,0,0
26.32896,-16348.63,-1250.449,694.2899,-2414.798,-83.1338,232.4898,0,0
26.36212,-16341.27,-1237.592,693.1791,-2419.265,-103.9406,232.8817,0,0
26.41187,-16355.68,-1192.266,702.2664,-2422.69,-114.2798,236.6747,0,0
26.41187,-16390.05,-1219.675,662.6443,-2420.88,-134.8613,238.9146,0,0
26.46161,-16409.7,-1227.377,644.5364,-2415.064,-166.5638,243.8434,0,0
26.49515,-16370.4,-1232.156,634.08,-2415.058,-173.2019,238.6398,0,0
26.51173,-16371.37,-1221.393,638.3647,-2415.068,-159.2584,207.1407,0,0
26.5449,-16423.09,-1181.031,615.1475,-2410.659,-151.2016,216.5168,0,0
26.59473,-16385.06,-1212.264,609.6956,-2416.168,-139.9252,189.5935,0,0
26.62791,-16372.56,-1169.732,597.9109,-2420.396,-128.9866,196.425,0,0
26.67622,-16354.15,-1199.324,677.6766,-2410.339,-132.7391,199.4508,0,0
26.67622,-16377.8,-1186.577,643.4476,-2411.523,-142.1957,200.3858,0,0
26.72746,-16359.36,-1194.613,589.5925,-2408.017,-157.3858,207.472,0,0
26.77724,-16431.71,-1158.719,606.1361,-2405.358,-134.561,184.9094,0,0
26.81042,-16399.46,-1179.002,647.7318,-2403.353,-132.54,213.6453,0,0
26.81042,-16373.63,-1187.962,603.1624,-2401.852,-186.0604,304.0231,0,0
26.8602,-16397.09,-1191.549,563.6211,-2405.168,-223.5472,424.4927,0,0
26.90998,-16416.12,-1222.03,628.8271,-2403.303,-242.8615,437.287,0,0
26.90998,-16421.76,-1198.806,637.8109,-2401.903,-268.4468,430.5011,0,0
26.95975,-16449.26,-1167.751,572.7032,-2405.292,-302.9429,446.4332,0,0
26.99294,-16477.93,-1063.197,534.103,-2412.34,-300.7169,444.2992,0,0
26.99294,-16471.98,-1025.574,497.0486,-2417.738,-253.7829,384.0518,0,0
27.04272,-16420.72,-1059.212,504.4561,-2413,-254.1715,365.3308,0,0
27.0759,-16417.98,-1040.961,457.2473,-2413.804,-271.6973,370.1579,0,0
27.09249,-16394.8,-1033.965,475.7721,-2414.419,-305.6389,382.4928,0,0
27.12568,-16440.22,-1017.859,396.1171,-2419.32,-315.5258,395.0204,0,0
27.17546,-16401.79,-1044.651,407.6282,-2414.196,-345.4843,438.1439,0,0
27.17546,-16377.91,-1017.795,411.3436,-2414.704,-417.3458,495.7439,0,0
27.22523,-16349.71,-944.3732,361.4207,-2415.091,-413.4082,479.0099,0,0
27.25838,-16347.09,-958.4183,397.9209,-2415.385,-405.7528,428.9652,0,0
27.30819,-16387.3,-977.3398,370.8668,-2415.607,-420.2214,438.8564,0,0
27.30819,-16357.18,-952.2917,357.2293,-2411.342,-412.2934,428.4399,0,0
27.35796,-16356.37,-989.9955,425.8806,-2408.084,-457.3291,398.636,0,0
27.39115,-16369.14,-1051.266,436.6016,-2405.603,-576.6227,434.6634,0,0
27.40774,-16443.22,-1012.992,312.0862,-2408.154,-654.2014,478.0925,0,0
27.44093,-16494.28,-921.8467,272.6318,-2396.826,-652.0608,479.4625,0,0
27.4907,-16415.71,-885.6946,286.1883,-2397.053,-638.5085,485.7536,0,0
27.54048,-16377.67,-914.978,279.3423,-2383.969,-668.0871,500.5225,0,0
27.54048,-16372.97,-887.92,218.0895,-2400.603,-666.9636,534.504,0,0
27.59026,-16452.51,-834.3824,125.2663,-2400.067,-631.0233,552.9456,0,0
27.62344,-16425.78,-852.6215,148.0399,-2404.11,-618.4014,530.1086,0,0
27.62344,-16431.83,-814.9667,116.3204,-2407.217,-619.5442,517.2841,0,0
27.67322,-16481.81,-805.4785,48.45146,-2414.03,-616.022,481.4329,0,0
27.723,-16478.91,-732.2504,16.16851,-2423.665,-552.1902,419.1883,0,0
27.75618,-16499.79,-754.3773,-34.25718,-2408.85,-499.6869,441.0258,0,0
27.77277,-16508.92,-702.0903,-48.6527,-2415.233,-467.3546,464.0487,0,0
27.80596,-16497.96,-627.2596,-67.60522,-2415.676,-419.5343,433.3688,0,0
27.85573,-16538.14,-626.1488,-31.34025,-2416.001,-364.404,430.0556,0,0
27.88892,-16512.14,-607.2202,-58.17471,-2407.374,-368.3349,529.6845,0,0
27.93869,-16505.34,-502.6442,-138.8433,-2414.069,-331.8918,542.5607,0,0
27.93869,-16444.57,-499.9731,-101.0618,-2419.186,-276.5216,460.4689,0,0
27.98847,-16415.76,-504.3834,-89.04613,-2414.222,-285.1551,450.9937,0,0
28.02166,-16401.52,-438.8235,-157.7622,-2414.844,-344.4176,459.7586,0,0
28.03825,-16407.32,-401.7734,-200.6555,-2410.88,-398.2534,488.2875,0,0
28.07144,-16417.37,-432.0077,-135.098,-2403.416,-442.2588,472.0636,0,0
28.12075,-16416.25,-412.8235,-145.1229,-2402.15,-490.8175,457.6221,0,0
28.12075,-16456.42,-366.8751,-234.0849,-2401.201,-484.3157,424.3666,0,0
28.1705,-16466.08,-363.6391,-290.2603,-2396.066,-460.3297,423.0375,0,0
28.20367,-16436.85,-343.2126,-323.4613,-2396.598,-429.3927,437.8467,0,0
28.20367,-16468.74,-328.4554,-362.3089,-2397.035,-387.3969,421.7711,0,0
28.25342,-16437.7,-275.9285,-327.8958,-2406.259,-408.2113,466.5554,0,0
28.30317,-16462.68,-286.5055,-412.5588,-2400.032,-384.0099,480.8385,0,0
28.35292,-16478.42,-306.5501,-348.9594,-2395.282,-370.5398,436.5641,0,0
28.35292,-16483.73,-262.8484,-398.037,-2400.536,-365.8682,420.4013,0,0
28.38609,-16484.38,-222.4641,-408.1376,-2404.574,-357.9687,360.7175,0,0
28.43584,-16475.92,-225.6584,-463.7503,-2398.807,-329.8853,329.6089,0,0
28.48559,-16508.14,-185.7252,-490.9825,-2398.84,-285.2994,329.0291,0,0
28.48559,-16502.77,-218.06,-515.3047,-2394.451,-263.9002,319.1321,0,0
28.51876,-16549.48,-215.8722,-551.796,-2386.685,-245.3349,308.7579,0,0
28.56851,-16534.07,-212.6937,-546.6131,-2389.644,-226.4737,292.7669,0,0
28.61826,-16549.79,-220.9104,-609.2908,-2396.374,-217.9359,246.1883,0,0
28.61826,-16543.89,-242.2261,-621.9139,-2405.974,-168.5593,196.2241,0,0
28.65143,-16556.92,-238.0366,-587.3751,-2400.024,-141.461,211.8952,0,0
28.70118,-16542.33,-235.3462,-592.1932,-2399.905,-118.1662,196.3355,0,0
28.70118,-16485.58,-231.5656,-528.5886,-2404.252,-103.6272,177.9247,0,0
28.75093,-16515.24,-218.0691,-563.4517,-2394.282,-89.42754,158.4587,0,0
28.80068,-16475.82,-225.9418,-550.6968,-2395.531,-80.47697,99.98661,0,0
28.80068,-16448.99,-264.5327,-502.6567,-2392.072,-75.81389,85.98364,0,0
28.8836,-16434.06,-256.7366,-483.1372,-2389.446,-79.40047,78.89011,0,0
28.8836,-16407.23,-232.2556,-520.9777,-2391.895,-81.23524,59.90054,0,0
28.93334,-16417.87,-261.5077,-426.529,-2384.927,-91.94516,68.65033,0,0
28.96652,-16446.1,-225.4639,-465.8916,-2375.198,-127.4025,94.98657,0,0
28.9831,-16435.64,-94.07384,-492.4193,-2372.236,-155.9462,64.35111,0,0
29.01627,-16491.97,-130.3644,-400.5073,-2378.892,-106.2743,33.06868,0,0
29.06602,-16486.3,-109.9222,-386.5302,-2375.167,-69.93479,67.25269,0,0
29.11577,-16507.4,-104.7736,-383.5226,-2376.795,-62.42876,122.0964,0,0
29.11577,-16521.25,-126.827,-431.0215,-2382.514,-61.7648,136.6614,0,0
29.14893,-16512.91,-120.8843,-477.2019,-2382.488,-62.72009,144.4304,0,0
29.19868,-16492.03,-94.60278,-462.4504,-2382.492,-42.18313,144.7496,0,0
29.19868,-16473.79,-115.9316,-439.8665,-2386.95,-40.66962,148.7697,0,0
29.24844,-16480.88,-92.76919,-463.4174,-2385.943,-39.02718,159.7586,0,0
29.29819,-16474.12,-112.012,-442.4837,-2389.616,-46.68692,182.9724,0,0
29.33136,-16446.79,-76.13863,-472.85,-2383.57,-67.80251,196.9292,0,0
29.34794,-16424.83,-95.61549,-453.8072,-2378.958,-90.29214,178.0049,0,0
29.39769,-16435.84,-126.3857,-391.4492,-2375.454,-127.0614,188.7838,0,0
29.43086,-16459.86,-105.8893,-394.6758,-2368.375,-144.7573,182.119,0,0
29.43086,-16459.45,-65.00546,-431.4946,-2371.866,-144.7567,184.5446,0,0
29.46403,-16471.35,-62.87444,-459.605,-2379.008,-160.2848,219.4014,0,0
29.51378,-16512.58,-35.01043,-544.1301,-2380.065,-130.89,146.6228,0,0
29.56353,-16591.68,30.23569,-523.213,-2380.89,-59.41429,84.93617,0,0
29.56353,-16601.01,66.36661,-480.3414,-2390.397,-9.889745,64.83891,0,0
29.61328,-16590.14,-33.95592,-432.962,-2388.804,21.61362,70.80308,0,0
29.64645,-16578.24,-51.26993,-409.947,-2383.146,37.59978,85.61322,0,0
29.64645,-16501.35,-99.12926,-336.9603,-2378.822,5.407103,103.8229,0,0
29.69664,-16522.23,-78.30098,-315.6144,-2384.391,-15.94162,117.6561,0,0
29.74633,-16532.61,-107.9469,-311.6935,-2375.364,-39.99786,120.3414,0,0
29.77948,-16554.88,-87.53625,-274.5829,-2372.909,-80.18169,150.7582,0,0
29.82921,-16504.23,-106.387,-232.0748,-2366.626,-124.0244,201.2226,0,0
29.82921,-16486.49,-35.60472,-297.406,-2379.583,-107.1395,274.1164,0,0
29.87894,-16467.4,-53.66258,-301.1174,-2385.082,-57.64608,279.5458,0,0
29.9121,-16501.62,-61.03403,-340.7116,-2384.856,-65.83407,315.2971,0,0
29.9121,-16465.78,-29.17621,-401.0292,-2380.249,-62.2186,321.0204,0,0
29.96182,-16486.05,-64.8342,-421.6761,-2381.16,-44.30704,277.9994,0,0
30.01155,-16512.68,-23.58578,-500.526,-2386.294,-22.68734,253.4425,0,0
30.01155,-16521.96,-97.46656,-508.5485,-2376.924,-17.93619,190.4722,0,0
30.06128,-16557.81,-43.29124,-521.0491,-2378.626,-49.36688,189.6398,0,0
30.11101,-16498.71,-64.00835,-513.7013,-2384.372,-80.72245,176.0115,0,0
30.14417,-16441.29,-57.81881,-484.5429,-2379.905,-143.5135,199.1439,0,0
30.14417,-16449.53,-37.68274,-518.5306,-2376.491,-167.0801,189.4367,0,0
30.1939,-16477.01,-40.14359,-477.832,-2387.185,-170.5347,171.7783,0,0
30.22747,-16500.31,-34.41286,-506.3471,-2382.069,-178.2555,174.1059,0,0
30.22747,-16508.17,-6.906422,-516.8997,-2382.583,-175.6644,186.7426,0,0
30.2772,-16571.77,-38.11444,-554.6733,-2378.546,-143.0383,156.5578,0,0
30.32709,-16567.11,-27.7856,-542.3129,-2379.896,-142.3384,174.2483,0,0
30.32709,-16517.96,-25.55118,-520.4137,-2376.503,-124.2711,161.5272,0,0
30.37688,-16508,-11.78749,-503.4626,-2378.351,-113.1709,178.9996,0,0
30.41007,-16489.28,-80.06125,-508.0754,-2370.911,-112.4186,180.2185,0,0
30.45987,-16500.47,-52.56352,-487.0995,-2378.534,-124.5772,157.6326,0,0
30.45987,-16507.93,-37.10102,-457.6659,-2379.946,-130.5297,154.8144,0,0
30.50966,-16540.23,-39.75007,-409.6447,-2385.46,-158.0285,178.2128,0,0
30.54286,-16496.19,6.889037,-438.3455,-2385.24,-181.4678,210.2704,0,0
30.55945,-16516.77,13.61491,-467.004,-2385.062,-179.8702,214.816,0,0
30.59265,-16549.13,-15.76544,-466.757,-2389.348,-169.9156,217.675,0,0
30.64244,-16538.35,5.942314,-489.7998,-2383.749,-138.9155,225.3326,0,0
30.67564,-16542.21,0.2541203,-461.9386,-2379.458,-107.667,214.494,0,0
30.69223,-16532.91,33.43254,-470.5021,-2380.609,-92.36779,219.4341,0,0
30.72543,-16475.88,39.8014,-488.1037,-2372.632,-86.54525,196.0124,0,0
30.77522,-16466.65,66.62727,-511.4778,-2379.839,-97.12799,196.9072,0,0
30.77522,-16518.4,56.99791,-478.2912,-2385.362,-64.02113,168.5066,0,0
30.82502,-16535.85,49.40302,-486.0754,-2385.149,-55.4197,186.4263,0,0
30.85822,-16545.82,82.16948,-518.5676,-2384.978,-63.93341,210.4105,0,0
30.90801,-16569.99,83.73618,-500.1127,-2380.407,-64.75246,202.4227,0,0
30.90801,-16561.77,31.51326,-469.2863,-2390.205,-90.6899,196.5628,0,0
30.9578,-16560.91,39.05204,-451.2208,-2384.394,-94.25007,167.1447,0,0
31.0076,-16570.12,33.62462,-481.7423,-2384.37,-105.591,177.6412,0,0
31.0076,-16532.74,33.79799,-527.2359,-2388.778,-91.01159,147.2182,0,0
31.04079,-16560.6,29.40268,-509.8642,-2383.276,-64.92825,128.4609,0,0
31.09058,-16519.81,9.339128,-462.1308,-2374.631,-61.3919,139.1692,0,0
31.13986,-16508.53,23.85848,-449.9816,-2381.325,-63.76775,160.4966,0,0
31.13986,-16509.9,43.77662,-528.2513,-2373.16,-69.82857,156.3871,0,0
31.17306,-16553.09,24.58029,-539.3053,-2375.792,-96.69352,150.2553,0,0
31.22281,-16526.26,12.04325,-529.8922,-2373.39,-98.15475,137.3242,0,0
31.27259,-16532.31,-8.655677,-491.5447,-2371.57,-87.08474,147.1855,0,0
31.27259,-16468.24,13.18968,-461.0508,-2379.062,-99.68025,147.3288,0,0
31.32237,-16476.92,40.97016,-519.7297,-2380.371,-120.9488,162.7368,0,0
31.35555,-16472.6,21.16365,-509.1776,-2376.942,-127.2059,127.7556,0,0
31.40532,-16518.15,27.00912,-502.144,-2378.755,-135.5278,126.2805,0,0
31.40532,-16561.89,18.1424,-491.1777,-2375.717,-145.4148,132.4566,0,0
31.4551,-16552.07,11.32807,-491.6301,-2373.4,-116.0466,149.7328,0,0
31.48828,-16538.94,-22.70011,-459.8365,-2376.074,-97.40829,145.5517,0,0
31.50488,-16522.2,11.13988,-517.5326,-2369.266,-105.8643,173.6922,0,0
31.53806,-16470.6,0.4826565,-485.1938,-2372.94,-80.76285,144.2572,0,0
31.58784,-16467.78,37.75764,-478.1603,-2371.336,-98.43338,157.7708,0,0
31.58784,-16496.76,20.80466,-477.2259,-2361.263,-108.9282,153.4531,0,0
31.63761,-16484.66,48.78282,-487.6094,-2362.452,-122.4884,167.8948,0,0
31.6708,-16499.84,3.64259,-497.7707,-2358.966,-111.7772,165.3694,0,0
31.6708,-16528.11,24.48706,-484.4741,-2365.2,-93.31055,153.4595,0,0
31.72058,-16506.52,32.6603,-524.1487,-2365.567,-88.89091,165.4111,0,0
31.77035,-16524.35,45.5151,-524.5265,-2374.732,-83.88101,169.8473,0,0
31.80354,-16525.79,27.58485,-551.3172,-2377.317,-87.2915,157.9945,0,0
31.80354,-16502.49,33.76519,-552.8533,-2374.858,-94.92319,151.4234,0,0
31.85332,-16491.33,61.71737,-574.9373,-2364.112,-86.10339,137.5564,0,0
31.90309,-16473.97,37.59227,-524.0859,-2355.908,-82.70871,141.1214,0,0
31.93628,-16470.75,24.61418,-481.7718,-2358.532,-80.98156,147.498,0,0
31.95287,-16530.41,17.98902,-487.087,-2356.144,-98.81183,148.5322,0,0
31.98605,-16532.84,2.950969,-494.5146,-2363.216,-92.24528,128.5775,0,0
32.03583,-16557.91,1.447144,-504.6476,-2368.65,-77.81497,134.6944,0,0
32.03583,-16540.43,-7.417157,-526.7977,-2368.385,-64.32071,136.9378,0,0
32.08561,-16542.5,-16.35959,-517.1084,-2368.187,-72.06699,162.5175,0,0
32.13538,-16547.34,-5.40347,-512.9769,-2363.609,-79.99119,154.6665,0,0
32.16856,-16536.57,21.8663,-466.5851,-2368.983,-78.33647,155.8564,0,0
32.16856,-16505.02,46.05062,-444.4442,-2368.669,-86.24339,186.676,0,0
32.21834,-16511.91,52.3068,-536.1913,-2368.432,-86.77248,181.95,0,0
32.21834,-16454.06,33.74677,-529.9129,-2368.253,-83.03512,130.9127,0,0
32.26812,-16489.68,54.94768,-530.5743,-2368.121,-83.51688,139.2571,0,0
32.3013,-16488.21,45.61579,-539.8753,-2359.16,-84.45742,173.6596,0,0
32.35107,-16473.85,17.36324,-524.7546,-2365.618,-74.11406,180.8491,0,0
32.40035,-16478.45,4.604358,-517.5626,-2357.277,-82.84958,158.0475,0,0
32.40035,-16506.42,-19.52534,-505.3829,-2364.212,-121.6801,174.0994,0,0
32.43353,-16531.17,16.37734,-453.9648,-2360.668,-125.3014,153.1179,0,0
32.48325,-16530.12,18.39392,-466.7875,-2353.542,-141.8397,175.2855,0,0
32.48325,-16503.79,57.60387,-506.6053,-2352.549,-126.9682,150.6767,0,0
32.533,-16502.47,63.16235,-480.585,-2351.823,-124.9227,170.3511,0,0
32.56616,-16460.49,109.4143,-500.594,-2360.163,-111.3817,165.7252,0,0
32.58274,-16480.54,134.6541,-515.9162,-2357.699,-94.61353,149.429,0,0
32.61591,-16505.91,116.0611,-508.7805,-2360.26,-76.80061,126.175,0,0
32.66566,-16503.19,78.36538,-477.821,-2371.094,-73.4617,123.9578,1,0
32.66566,-16523.26,124.7379,-511.7795,-2370.511,-74.84058,128.7097,1,0
32.69883,-16517.54,111.302,-494.5513,-2370.051,-81.48705,108.5944,1,0
32.74858,-16535.29,115.259,-475.8373,-2365.255,-81.34711,94.40835,1,0
32.79833,-16569.87,68.28031,-478.1854,-2370.446,-89.30301,103.6226,1,0
32.79833,-16539.7,99.84809,-476.7112,-2365.545,-90.69745,129.3401,1,0
32.84808,-16482.18,93.99875,-496.6826,-2361.793,-78.20145,133.562,1,0
32.89783,-16460.38,84.99883,-482.0654,-2354.498,-73.93159,140.6993,1,0
32.93099,-16444.91,104.6315,-484.2029,-2348.938,-73.19906,145.8961,1,0
32.93099,-16512.98,75.24527,-463.7127,-2349.149,-68.52749,159.0106,1,0
32.98074,-16506.37,77.08526,-481.3337,-2353.777,-57.24812,150.4616,1,0
33.03049,-16552.27,54.08889,-442.7892,-2352.911,-66.68953,127.8397,1,0
33.03049,-16558.5,66.41441,-433.3363,-2356.703,-50.15044,121.0841,1,0
33.06366,-16523.27,66.98198,-448.3901,-2355.187,-39.78814,122.3367,1,1
33.1134,-16536.14,60.76123,-512.076,-2345.179,-30.57485,115.8674,1,1
33.16315,-16533.76,72.62186,-507.6013,-2346.418,-10.62538,77.46482,1,1
33.16315,-16499.76,98.29879,-464.2443,-2347.399,5.87218,23.28423,1,1
33.19632,-16505.89,112.3389,-456.5814,-2352.611,1.41769,16.41047,1,1
33.24607,-16470.71,111.9009,-433.0602,-2352.185,21.37652,-50.34152,1,1
33.24607,-16439.45,68.2579,-371.9685,-2351.875,4.877323,-84.69827,1,1
33.29581,-16468.86,112.3933,-369.7643,-2356.083,-26.47008,-60.40353,1,1
33.34557,-16495.9,82.94364,-370.5441,-2354.879,-18.14434,-68.27618,1,1
33.37873,-16522.16,16.05846,-345.8977,-2349.533,2.264556,-46.49976,1,1
33.37873,-16485.73,1.539043,-278.564,-2341.027,-6.89116,-24.25054,1,1
33.42848,-16442.37,49.29885,-398.0346,-2347.846,-20.09941,11.5841,1,1
33.47823,-16428.15,60.4298,-407.6533,-2357.519,46.98892,-35.88719,1,1
33.51139,-16475.04,-25.19849,-326.4825,-2364.921,58.53091,-67.00178,1,1
33.52798,-16545.34,-60.63795,-348.8003,-2348.412,57.16012,-71.68449,1,1
33.56115,-16582.43,-77.51635,-295.1976,-2349.083,86.3535,-155.0062,1,1
33.6109,-16515.36,-56.8946,-315.4074,-2358.476,105.6586,-186.4719,1,1
33.6109,-16504.96,-98.46554,-284.6121,-2356.799,99.63696,-301.9814,1,1
33.66064,-16519.15,-139.9364,-263.5645,-2355.512,121.0592,-342.8452,1,1
33.69381,-16488.99,-184.5739,-209.0243,-2350.096,170.3833,-413.7392,1,1
33.74356,-16511.36,-241.5233,-171.0456,-2350.394,175.6115,-408.3563,1,1
33.76014,-16528.46,-318.8699,-99.28483,-2355.066,194.1681,-415.5339,1,1
33.79367,-16502.73,-300.9039,-104.8245,-2349.781,183.8582,-409.6514,1,1
33.82684,-16529.56,-295.343,-105.2498,-2350.177,198.8522,-418.479,1,1
33.84342,-16493.55,-311.5168,10.16451,-2346.062,238.4687,-478.1974,1,1
33.87667,-16530.26,-360.9457,81.09821,-2334.068,216.2733,-443.8469,1,1
33.92647,-16518.43,-339.3762,117.8506,-2342.657,209.1414,-442.8398,1,1
33.92647,-16535.93,-382.0689,153.8752,-2349.258,208.8736,-429.7417,1,1
33.97626,-16519.35,-376.4128,198.1741,-2354.32,180.0935,-366.7435,1,1
34.02607,-16525.47,-382.5311,247.6516,-2349.329,165.018,-342.7141,1,1
34.04266,-16485.8,-384.3917,289.958,-2345.514,178.487,-373.53,1,1
34.04266,-16444.41,-446.1667,407.6049,-2342.61,142.0606,-333.8454,1,1
34.09246,-16460.51,-422.9823,392.182,-2335.976,79.71369,-247.4968,1,1
34.12566,-16490.67,-384.6898,397.9477,-2344.227,60.26499,-220.3566,1,1
34.12566,-16519.33,-399.2062,383.4362,-2341.697,97.52499,-207.3252,1,1
34.17547,-16523.51,-457.4735,423.2915,-2348.642,109.7064,-181.3102,1,1
34.20866,-16472.39,-481.5532,463.7531,-2353.963,106.811,-161.2003,1,1
34.25846,-16453.25,-499.3719,506.8617,-2358.026,97.08839,-142.0544,1,1
34.25846,-16418.78,-489.1248,533.1268,-2347.824,97.67226,-140.0251,1,1
34.30826,-16418.06,-460.7707,566.4401,-2340.019,72.35841,-117.3094,1,1
34.35806,-16448.71,-466.2865,575.2272,-2338.497,57.46289,-126.9884,1,1
34.35806,-16455.66,-462.2997,561.9577,-2341.79,36.72933,-81.95241,1,1
34.39058,-16430.05,-469.9044,573.9927,-2339.897,46.74277,-70.44942,1,1
34.44106,-16485.9,-515.1928,646.423,-2334.037,62.543,-66.63292,1,1
34.49086,-16461.08,-490.6564,668.6044,-2329.583,36.20313,-6.658092,1,1
34.49086,-16495.31,-494.7192,601.3627,-2330.646,51.32516,-10.7134,1,1
34.54066,-16463.88,-529.5562,630.9365,-2327.067,74.61107,-31.63784,1,1
34.57386,-16481.96,-573.4948,644.8901,-2333.232,61.71495,-3.094436,1,1
34.60706,-16501.35,-591.0897,639.1476,-2337.979,58.25568,-3.1931,1,1
34.62366,-16464.07,-629.4902,682.6416,-2337.196,57.87357,-6.647285,1,1
34.65638,-16496.51,-663.8207,699.527,-2327.75,49.04459,18.92839,1,1
34.65638,-16524.64,-653.9984,661.7069,-2329.415,59.24566,-11.13498,1,1
34.75584,-16526.13,-672.4657,682.9492,-2330.721,58.51042,-33.58187,1,1
34.78901,-16544.91,-744.7101,737.2213,-2327.316,75.15736,-71.45439,1,1
34.83876,-16487.14,-780.4473,794.5417,-2329.172,35.28026,-53.73849,1,1
34.83876,-16454,-760.4927,794.286,-2330.619,0.1304485,-32.26903,1,1
34.88851,-16456.4,-722.3583,779.9084,-2331.748,-33.53696,-51.72773,1,1
34.92167,-16480.47,-713.6376,801.3292,-2328.199,-17.80927,-97.48408,1,1
34.93825,-16504.46,-678.748,818.0281,-2334.369,9.932782,-108.7019,1,1
34.95482,-16394.28,-670.4603,762.4331,-2334.671,61.47611,-119.7574,1,1
34.988,-16412.05,-768.9928,846.6337,-2339.341,121.4219,-168.6062,1,1
35.02116,-16412.53,-820.5977,827.227,-2334.051,129.7771,-180.0886,1,1
35.03775,-16440.75,-872.7376,932.4152,-2338.871,129.083,-162.6647,1,1
35.07091,-16491.24,-893.074,935.6052,-2342.559,84.63642,-133.129,1,1
35.12066,-16456.75,-865.7885,972.627,-2332.077,55.26958,-135.1089,1,1
35.13725,-16470.25,-860.8598,991.2023,-2337.359,27.55108,-113.5826,1,1
35.15383,-16508.3,-827.6779,1021.139,-2336.973,27.19234,-91.55992,1,1
35.20358,-16496.35,-835.012,1038.706,-2332.248,25.06845,-60.07015,1,1
35.25332,-16472.76,-842.3608,993.6371,-2328.642,58.4276,-59.6227,1,1
35.28648,-16452.48,-816.4959,1040.349,-2325.901,95.05392,-72.41427,1,1
35.30307,-16414.85,-859.4507,1139.544,-2323.829,93.10577,-68.44167,1,1
35.35281,-16434.93,-905.1688,1186.787,-2317.84,46.67515,-18.4036,1,1
35.38597,-16438.2,-876.4813,1218.567,-2322.159,8.395452,31.89661,1,1
35.38597,-16491.73,-809.7533,1176.453,-2316.633,-19.67719,95.58287,1,1
35.4523,-16517.16,-825.9697,1127.772,-2316.873,-6.086825,96.54639,1,1
35.46889,-16462.29,-836.9887,1121.865,-2321.527,25.79126,67.50758,1,1
35.48523,-16411.44,-831.8322,1083.405,-2320.683,40.84668,70.1479,1,1
35.53522,-16383.72,-868.6015,1061.14,-2320.063,19.16396,48.59024,1,1
35.58495,-16426.95,-868.7171,1072.407,-2319.614,0.9736687,39.86858,1,1
35.63472,-16434.65,-895.0685,1165.848,-2332.588,-4.533141,14.97642,1,1
35.63472,-16359.74,-909.3376,1180.216,-2342.516,-75.65226,62.52066,1,1
35.68446,-16325.89,-911.0186,1209.373,-2341.224,-137.3036,57.413,1,1
35.68446,-16362.3,-854.3347,1206.617,-2335.779,-166.0953,57.98981,1,1
35.68446,-16385.96,-799.644,1210.49,-2336.03,-156.6643,48.52863,1,1
35.7508,-16347.71,-772.1006,1198.419,-2331.779,-126.0459,39.17017,1,1
35.80055,-16321.96,-795.3237,1256.18,-2324.093,-106.4412,34.63055,1,1
35.81713,-16340.17,-810.8354,1243.234,-2331.519,-80.37833,65.92583,1,1
35.86689,-16368.73,-864.7211,1224.957,-2332.773,-63.29396,92.46599,1,1
35.90005,-16386.29,-904.662,1231.48,-2324.867,-50.36514,129.7143,1,1
35.91664,-16351.07,-978.1545,1260.33,-2332.123,-81.92162,159.5776,1,1
35.9498,-16386.3,-999.6329,1268.569,-2333.244,-105.9275,165.7313,1,1
35.99955,-16394.51,-1041.08,1278.764,-2329.666,-117.4567,200.2646,1,1
35.99955,-16374.26,-1006.905,1290.462,-2331.362,-100.03,217.6932,1,1
36.0493,-16413.12,-979.191,1216.905,-2328.228,-56.0545,242.5016,1,1
36.08247,-16388.58,-969.8084,1192.377,-2321.403,3.981349,257.4174,1,1
36.08247,-16356.55,-997.7675,1218.76,-2320.632,53.73586,249.2404,1,1
36.13259,-16329.93,-1016.604,1182.16,-2324.496,68.08674,254.1696,1,1
36.18234,-16358.47,-1070.528,1142.857,-2318.604,47.55191,255.0225,1,1
36.21552,-16305.1,-1084.742,1141.47,-2322.982,13.93732,244.1906,1,1
36.23211,-16340.89,-1132.796,1172.448,-2321.917,-70.03819,254.0938,1,1
36.26529,-16379.5,-1080.386,1125.112,-2329.979,-91.28379,196.508,1,1
36.31505,-16369.21,-1122.918,1201.829,-2327.286,-67.77738,143.0702,1,1
36.31505,-16303.78,-1102.916,1206.073,-2329.657,-89.00101,182.6792,1,1
36.36481,-16294.87,-1078.312,1137.103,-2327.039,-69.09887,150.5365,1,1
36.39798,-16290.47,-1122.273,1138.538,-2329.468,-54.32008,146.3472,1,1
36.44775,-16266.27,-1168.8,1180.586,-2326.894,-34.91906,128.1261,1,1
36.48093,-16255.75,-1167.351,1189.383,-2324.927,-49.69325,150.1664,1,1
36.49751,-16307.78,-1153.573,1200.4,-2323.428,-42.41086,139.8381,1,1
36.53069,-16293.47,-1154.784,1206.452,-2317.861,-39.58458,154.0506,1,1
36.58045,-16240.57,-1175.25,1184.326,-2318.052,-48.76363,169.2972,1,1
36.59704,-16283.42,-1187.167,1217.126,-2318.221,-44.95786,154.0078,1,1
36.63021,-16285.37,-1188.104,1199.962,-2322.802,-42.57555,157.1984,1,1
36.66339,-16310.27,-1192.841,1204.412,-2326.317,-39.90531,158.7486,1,1
36.67998,-16327.2,-1194.96,1226.519,-2329.009,-45.88425,152.3957,1,1
36.71315,-16351.26,-1182.906,1210.032,-2326.631,-60.96463,184.8761,1,1
36.76292,-16355.26,-1343.945,1165.151,-2324.81,-17.34185,207.966,1,1
36.76292,-16380.45,-1334.727,1118.584,-2327.85,-40.48851,209.693,1,1
36.81268,-16390.77,-1303.768,1159.461,-2321.311,-47.12631,210.8539,1,1
36.84586,-16377.52,-1258.488,1125.393,-2325.179,-70.46484,224.3273,1,1
36.89562,-16424.9,-1256.661,1100.489,-2323.711,-79.39563,205.1084,1,1
36.89562,-16421.12,-1216.124,1155.772,-2327.024,-87.24782,181.4072,1,1
36.94538,-16399.22,-1229.151,1136.055,-2329.558,-110.0469,192.0023,1,1
36.97856,-16345.8,-1218.919,1195.219,-2331.489,-129.0103,221.0816,1,1
36.99514,-16392.44,-1204.213,1178.379,-2328.524,-141.6769,239.8779,1,1
37.02832,-16393.72,-1170.618,1172.072,-2330.68,-89.95815,208.6673,1,1
37.07809,-16332.59,-1158.099,1220.377,-2327.889,-92.1003,252.8012,1,1
37.12785,-16347.88,-1140.705,1165.263,-2330.181,-88.9549,281.6884,1,1
37.12785,-16315.31,-1118.515,1121.941,-2336.359,-78.17223,281.9497,1,1
37.16103,-16335.89,-1145.88,1085.536,-2332.205,-71.54128,251.7203,1,1
37.21078,-16326.22,-1170.133,1116.546,-2329.013,-82.23158,219.8318,1,1
37.24396,-16327.75,-1132.125,1113.791,-2326.566,-100.0674,197.5585,1,1
37.24396,-16398.78,-1122.978,1071.891,-2324.696,-108.3792,181.0427,1,1
37.27714,-16423.14,-1191.341,1098.706,-2314.409,-94.42791,113.8622,1,1
37.29373,-16437.2,-1195.921,1038.478,-2310.994,-120.5205,134.8899,1,1
37.3269,-16469.94,-1136.151,1060.186,-2312.849,-82.2216,88.79961,1,1
37.36008,-16438.25,-1144.685,1060.372,-2314.3,-54.81433,111.617,1,1
37.40984,-16434.87,-1136.813,1035.207,-2306.575,2.683233,75.79536,1,1
37.40984,-16433.25,-1152.957,1073.766,-2309.565,33.23552,95.40681,1,1
37.47619,-16393.09,-1158.647,1108.946,-2307.457,46.97068,117.5224,1,1
37.50937,-16322.44,-1145.242,1175.793,-2310.311,55.2876,145.0936,1,1
37.50937,-16279.55,-1175.964,1201.365,-2303.661,20.12348,175.1084,1,1
37.54254,-16340,-1183.902,1142.104,-2311.905,-11.124,181.9952,1,1
37.59231,-16318.78,-1204.292,1134.36,-2313.806,-27.93394,193.0376,1,1
37.64207,-16289.37,-1244.143,1114.013,-2306.414,-53.30802,201.1453,1,1
37.65865,-16343.46,-1248.956,1121.733,-2309.647,-72.71432,250.195,1,1
37.69139,-16351.7,-1257.96,1108.825,-2316.576,-44.85574,234.103,1,1
37.72501,-16352.49,-1296.752,1146.621,-2321.886,-44.85236,261.2372,1,1
37.72501,-16314.34,-1285.157,1186.592,-2317.08,-45.12915,257.7145,1,1
37.79137,-16365,-1235.027,1151.696,-2317.835,-37.86503,248.7395,1,1
37.84113,-16417.07,-1274.058,1151.515,-2313.983,-36.19904,249.469,1,1
37.84113,-16435.75,-1294.867,1145.79,-2319.906,-43.25364,254.0354,1,1
37.8909,-16380.09,-1252.941,1070.477,-2315.574,-45.33564,234.6729,1,1
37.92213,-16378.42,-1261.688,1108.231,-2312.264,-53.29828,242.1855,1,1
37.97383,-16400.38,-1281.527,1027.519,-2314.174,-61.5906,252.8156,1,1
37.97383,-16406.04,-1261.077,1000.302,-2324.508,-36.32871,216.7933,1,1
38.0236,-16382.59,-1309.539,1088.318,-2327.972,-30.30281,193.8853,1,1
38.05678,-16386.77,-1286.586,1057.184,-2335.032,-46.49652,201.0158,1,1
38.10654,-16402.11,-1289.887,1053.423,-2331.536,-54.73758,189.5857,1,1
38.10654,-16410.47,-1300,1050.682,-2319.968,-56.86996,167.2943,1,1
38.1563,-16409.03,-1307.558,1109.649,-2319.973,-59.0294,155.2932,1,1
38.1563,-16371.29,-1286.567,1127.094,-2324.408,-71.73008,161.7195,1,1
38.23925,-16416.63,-1294.733,1114.922,-2327.794,-84.44211,169.7717,1,1
38.25583,-16349.34,-1248.776,1083.425,-2317.075,-56.70102,142.4872,1,1
38.28901,-16342.2,-1298.861,1098.138,-2322.17,-92.49628,186.5248,1,1
38.33877,-16391.1,-1277.246,1037.414,-2321.636,-80.75476,164.5882,1,1
38.33877,-16412.99,-1338.157,1053.117,-2325.656,-82.77617,172.2257,1,1
38.38854,-16365.42,-1294.839,1026.483,-2310.997,-75.11723,178.9456,1,1
38.38854,-16340.11,-1319.168,1031.741,-2304.227,-69.48438,168.8815,1,1
38.4383,-16396.15,-1304.401,1045.887,-2312.376,-63.48013,166.7598,1,1
38.47147,-16383.62,-1321.781,1071.228,-2314.201,-72.1628,190.3858,1,1
38.52124,-16317.51,-1295.055,1038.606,-2302.317,-70.4691,172.1845,1,1
38.52124,-16353.45,-1302.207,1072.459,-2310.981,-76.34543,181.8218,1,1
38.571,-16379.9,-1287.651,1116.135,-2308.769,-72.49638,167.607,1,1
38.58757,-16407.9,-1298.608,1075.279,-2307.096,-81.70643,180.0282,1,1
38.62075,-16359.46,-1310.246,1045.129,-2292.545,-87.87878,183.7329,1,1
38.63734,-16384.45,-1305.765,1053.158,-2294.754,-90.88237,166.0755,1,1
38.67052,-16372.54,-1311.113,1031.682,-2296.494,-99.48752,160.6292,1,1
38.7037,-16357.88,-1275.236,1090.688,-2297.867,-104.3333,170.9134,1,1
38.72028,-16356.68,-1248.872,1053.863,-2298.955,-99.92373,185.1833,1,1
38.75346,-16383.49,-1295.216,1045.667,-2299.82,-82.62675,174.7746,1,1
38.80319,-16340.85,-1307.385,1112.584,-2300.509,-79.04799,164.8816,1,1
38.85295,-16365.88,-1309.979,1080.65,-2305.493,-92.35313,192.5175,1,1
38.86954,-16330.78,-1263.142,1025.175,-2304.889,-72.02776,152.4422,1,1
38.90272,-16357.18,-1302.647,1048.184,-2304.438,-64.77582,132.625,1,1
38.9359,-16335.32,-1281.876,1012.693,-2304.106,-82.22965,161.043,1,1
38.95249,-16385.13,-1318.032,1033.298,-2308.295,-83.38522,145.7278,1,1
38.98566,-16412.15,-1289.126,999.3127,-2302.642,-87.01517,140.7191,1,1
39.03543,-16331.92,-1260.328,967.9155,-2298.329,-86.1626,152.1954,1,1
39.03543,-16343.7,-1254.944,1024.974,-2290.62,-82.15852,137.7663,1,1
39.08519,-16357.2,-1228.727,1012.247,-2298.052,-76.86021,147.0145,1,1
39.10178,-16380.86,-1256.408,1005.933,-2299.333,-60.0603,134.4849,0,1
39.16814,-16394.51,-1295.375,1044.418,-2300.332,-76.86729,170.9446,0,1
39.16814,-16338.42,-1293.038,1072.797,-2309.973,-91.39289,187.2181,0,1
39.25108,-16338.76,-1271.268,1006.959,-2308.482,-96.38277,193.5363,0,1
39.28426,-16352.37,-1282.308,1040.85,-2307.336,-62.48909,140.9833,0,1
39.28426,-16300.79,-1325.091,1064.606,-2297.593,-61.77363,152.0463,0,1
39.31755,-16394.38,-1317.855,1041.773,-2299.016,-66.24493,163.3232,0,1
39.36732,-16328.6,-1312.224,1098.533,-2304.553,-50.58043,153.6868,0,1
39.41709,-16301.57,-1308.948,1097.567,-2304.364,-53.59907,166.0019,0,1
39.41709,-16307.61,-1303.056,1091.182,-2299.79,-63.43525,167.9531,0,1
39.46686,-16347.8,-1295.179,1088.423,-2300.732,-66.55668,172.4882,0,1
39.50004,-16384.13,-1276.94,1041.924,-2301.464,-64.80502,167.3594,0,1
39.54981,-16412.98,-1274.076,1029.625,-2310.895,-74.55785,164.5373,0,1
39.54981,-16362.93,-1257.509,991.472,-2309.238,-93.09556,168.1966,0,1
39.59958,-16312.42,-1259.292,1023.342,-2307.96,-100.3144,159.3616,0,1
39.61614,-16320.38,-1296.165,1013.473,-2293.681,-111.5919,148.4589,0,1
39.61614,-16338.74,-1274.515,1085.768,-2291.637,-106.0135,147.0759,0,1
39.68253,-16376.11,-1287.869,1066.814,-2281.241,-97.79397,155.1987,0,1
39.71571,-16380.29,-1288.112,1102.115,-2286.629,-96.99201,164.7625,0,1
39.71571,-16336.91,-1291.609,1102.439,-2286.361,-102.982,179.2831,0,1
39.76547,-16282.69,-1284.297,1083.741,-2286.193,-113.3298,200.888,0,0
39.81524,-16345.49,-1274.265,1050.529,-2290.53,-111.2067,204.3275,0,0
39.81524,-16419.06,-1274.362,1042.843,-2293.874,-105.9137,220.1647,0,0
39.84821,-16392.14,-1282.211,1092.386,-2296.448,-112.0576,257.3711,0,0
39.88145,-16317.17,-1286.007,1101.435,-2298.426,-137.4708,309.4736,0,0
39.89819,-16337.4,-1281.151,1121.557,-2299.942,-172.0427,336.3118,0,0
39.94796,-16321.91,-1274.114,1083.649,-2301.1,-206.3512,391.9489,0,0
39.96455,-16326.75,-1298.657,1103.322,-2301.983,-252.573,428.5363,0,0
40.03091,-16306.14,-1236.541,1018.595,-2298.221,-331.0859,549.6255,0,0
40.08067,-16403.46,-1161.395,954.9462,-2299.774,-358.8266,584.7751,0,0
40.11386,-16381.46,-1165.069,909.7963,-2300.963,-355.9633,626.366,0,0
40.11386,-16332.43,-1186.973,936.5098,-2297.438,-359.0617,721.8569,0,0
40.14703,-16312.65,-1199.506,900.7382,-2299.174,-298.6167,683.6849,0,0
40.1968,-16294.28,-1204.823,899.1694,-2304.936,-302.1308,759.0629,0,0
40.1968,-16294.75,-1154.743,767.5736,-2309.334,-310.8698,810.7538,0,0
40.22998,-16291.9,-1132.148,706.2054,-2308.247,-311.6978,754.2335,0,0
40.22998,-16369.61,-1127.316,740.8179,-2307.396,-419.2037,687.6133,0,0
40.32951,-16389.16,-1092.876,569.6325,-2302.297,-447.2455,755.8219,0,0
40.3461,-16406.23,-1071.281,601.278,-2298.39,-445.4242,724.6936,0,0
40.37928,-16426.92,-1052.907,563.2159,-2295.404,-431.2979,655.0118,0,0
40.39587,-16484.66,-1027.052,534.9667,-2288.7,-439.3862,652.6707,0,0
40.41246,-16485.36,-1034.28,499.8473,-2292.458,-425.9953,628.533,0,0
40.46223,-16518.83,-1041.32,539.2617,-2295.353,-421.6959,579.4807,0,0
40.512,-16510.87,-966.1984,412.9313,-2302.01,-391.9876,546.6619,0,0
40.52859,-16519.96,-966.8007,390.37,-2298.239,-370.0572,516.6714,0,0
40.54487,-16566.47,-952.2391,294.3819,-2290.923,-362.182,516.8984,0,0
40.61154,-16549.6,-890.6242,284.14,-2289.773,-338.2357,499.8314,0,0
40.61154,-16533.01,-848.4899,250.8855,-2288.914,-340.2707,497.539,0,0
40.66131,-16493.42,-842.3861,203.3473,-2292.71,-368.5713,502.9659,0,0
40.69448,-16563.73,-858.3084,180.3687,-2295.628,-438.5252,599.5927,0,0
40.7438,-16517.53,-858.8952,137.4079,-2297.868,-437.1909,612.6688,0,0
40.7438,-16502.98,-834.4124,129.032,-2290.719,-420.8976,623.791,0,0
40.79353,-16429.64,-827.319,160.3813,-2285.262,-421.1787,611.8037,0,0
40.81009,-16395.66,-810.2616,145.5678,-2281.111,-433.0568,602.9374,0,0
40.81009,-16393,-768.967,88.73689,-2273.539,-483.1568,668.2258,0,0
40.87639,-16405.47,-716.9352,-16.80668,-2281.086,-463.8242,640.3198,0,0
40.92572,-16349.71,-694.4355,-25.41628,-2278.034,-445.9529,621.734,0,0
40.92572,-16432.39,-718.9332,-55.1275,-2280.166,-487.4194,636.9308,0,0
40.95927,-16421.47,-688.4774,-72.19238,-2277.397,-506.9363,617.8717,0,0
41.00899,-16449.67,-665.832,-92.897,-2275.312,-484.9696,546.6077,0,0
41.02557,-16490.04,-649.1832,-156.2885,-2269.321,-483.1008,528.8821,0,0
41.0753,-16498.64,-582.8446,-221.2633,-2273.647,-468.115,528.9286,0,0
41.09187,-16421.99,-572.7413,-166.6169,-2281.427,-435.381,499.0988,0,0
41.15817,-16415.39,-523.6982,-213.3415,-2282.97,-373.9145,484.9575,0,0
41.15817,-16450.26,-512.4878,-241.2603,-2288.594,-306.9406,437.4359,0,0
41.22448,-16450.33,-525.7932,-224.8699,-2288.467,-263.8792,438.1295,0,0
41.25763,-16429.3,-535.6356,-251.097,-2292.799,-210.9701,442.2146,0,0
41.30735,-16444.23,-593.7196,-191.4203,-2296.104,-216.8222,451.0897,0,0
41.30735,-16420.19,-598.833,-161.4418,-2289.753,-253.5073,439.7819,0,0
41.35708,-16460.53,-546.7289,-272.8598,-2289.319,-357.7294,511.3551,0,0
41.39023,-16457.01,-458.6653,-387.0818,-2284.553,-341.6932,447.635,0,0
41.42338,-16449.84,-421.899,-409.0716,-2285.345,-300.3598,413.6857,0,0
41.43995,-16485.3,-423.3484,-440.2173,-2290.389,-264.4018,420.6052,0,0
41.4731,-16484.65,-458.4428,-432.9464,-2294.247,-219.3448,396.7512,0,0
41.52324,-16526.14,-434.9805,-463.9209,-2283.893,-197.3273,375.9666,0,0
41.52324,-16561.03,-459.7583,-485.3954,-2284.838,-144.2433,332.0883,0,0
41.57296,-16539.85,-418.3525,-450.8647,-2281.14,-121.208,426.2621,0,0
41.60621,-16541.14,-469.2448,-471.0824,-2291.618,-128.4119,436.1857,0,0
41.60621,-16495.41,-537.4793,-465.651,-2286.338,-130.7543,387.3844,0,0
41.63939,-16530.11,-509.132,-509.3312,-2273.438,-171.7186,361.5813,0,0
41.68916,-16507.78,-518.7728,-536.2801,-2281.319,-198.1008,292.7852,0,0
41.72234,-16444.06,-489.8837,-502.7715,-2287.367,-209.9159,278.735,0,0
41.75551,-16491.71,-542.3255,-579.3051,-2278.703,-286.9765,343.7259,0,0
41.77211,-16545.88,-484.081,-623.6426,-2272.088,-326.0097,328.3691,0,0
41.82188,-16566.12,-363.368,-663.217,-2271.489,-296.5074,314.1045,0,0
41.87164,-16540.41,-356.8315,-611.5905,-2275.494,-242.0228,282.4167,0,0
41.88823,-16527.23,-352.4009,-622.1423,-2265.29,-225.5933,280.6519,0,0
41.92141,-16529.22,-387.2268,-535.205,-2266.384,-234.7364,261.0723,0,0
41.97118,-16506.27,-351.1874,-583.2501,-2267.261,-251.5228,255.5753,0,0
42.00436,-16511.91,-360.6504,-582.8004,-2267.969,-252.7914,207.6801,0,0
42.00436,-16488.48,-348.4059,-627.2351,-2268.543,-265.4364,210.2233,0,0
42.05412,-16552.53,-392.6592,-662.7633,-2269.011,-266.8194,195.9662,0,0
42.0873,-16508.37,-375.9085,-708.0441,-2273.827,-260.1292,163.5938,0,0
42.13707,-16456.79,-355.6735,-694.2586,-2273.096,-241.1801,156.1772,0,0
42.13707,-16436.22,-411.4536,-644.1873,-2276.983,-233.3826,117.732,0,0
42.18684,-16470.45,-386.8091,-636.284,-2284.394,-264.0495,138.679,0,0
42.23661,-16496.71,-353.8047,-683.9839,-2281.192,-265.1005,161.2646,0,0
42.28638,-16540.06,-375.392,-716.5692,-2274.304,-268.3977,170.6245,0,0
42.28638,-16502.23,-383.3199,-671.0698,-2273.473,-296.117,186.1545,0,0
42.33614,-16483.21,-359.7072,-661.1973,-2277.28,-310.3445,180.8741,0,0
42.4025,-16467.56,-329.7123,-730.7232,-2284.63,-338.5833,212.8311,0,0
42.4025,-16480,-354.7083,-719.1054,-2276.949,-338.1621,189.2931,0,0
42.4025,-16508.39,-363.0192,-677.5436,-2279.935,-342.1166,164.0205,0,0
42.45227,-16482.45,-372.9222,-603.2125,-2282.218,-370.746,183.441,0,0
42.50204,-16440.45,-326.4029,-614.77,-2279.527,-346.2021,194.0939,0,0
42.50204,-16422.8,-367.5027,-607.8831,-2277.465,-306.2165,169.4702,0,0
42.53522,-16423.85,-381.4155,-623.4601,-2271.458,-293.5604,185.7372,0,0
42.58499,-16394.89,-337.9112,-651.7803,-2280.171,-276.6602,219.4152,0,0
42.58499,-16432.73,-334.7325,-644.3832,-2282.406,-278.43,240.8555,0,0
42.63476,-16355.46,-201.7943,-605.2393,-2275.247,-297.2589,223.236,0,0
42.66794,-16459.43,-258.9408,-642.704,-2274.204,-256.2656,295.115,0,0
42.71771,-16417.19,-284.2208,-653.4454,-2273.417,-182.8588,254.4986,0,0
42.7343,-16391.61,-270.6193,-650.3584,-2272.825,-146.8402,236.9663,0,0
42.78407,-16401,-276.0068,-652.2126,-2276.816,-124.843,217.7646,0,0
42.81677,-16417.2,-309.1987,-605.7911,-2279.874,-110.8467,215.3298,0,0
42.86655,-16469.57,-336.9994,-648.8164,-2273.348,-111.0219,214.3798,0,0
42.8997,-16495.23,-360.5966,-620.6498,-2277.225,-104.3022,186.8689,0,0
42.8997,-16508.14,-374.267,-653.2608,-2275.762,-114.456,173.9774,0,0
42.94946,-16507.93,-353.7149,-715.7201,-2279.078,-108.1296,178.1185,0,0
42.99921,-16550.87,-371.2603,-712.2711,-2277.182,-99.9838,172.0184,0,0
43.01579,-16491.58,-389.1295,-702.6944,-2280.163,-110.665,190.4865,0,0
43.04897,-16510.38,-367.3231,-678.4943,-2282.438,-108.3017,193.3719,0,0
43.08214,-16525.79,-370.5813,-699.6666,-2284.17,-88.18679,180.4362,0,0
43.11531,-16496.47,-346.4952,-692.3952,-2276.618,-85.53191,176.7373,0,0
43.11531,-16532.68,-358.0265,-740.9204,-2279.702,-72.14181,167.6507,0,0
43.18165,-16497.12,-334.7618,-730.1459,-2282.061,-83.50554,170.5171,0,0
43.21482,-16518.6,-314.8184,-723.8593,-2279.426,-80.82272,156.4883,0,0
43.21482,-16488.42,-295.2448,-717.7145,-2272.975,-81.22467,158.3528,0,0
43.26457,-16517.37,-299.2578,-708.382,-2272.48,-93.9445,150.772,0,0
43.29774,-16499.57,-302.4794,-711.0431,-2272.115,-90.85069,146.7709,0,0
43.29774,-16461.53,-319.4805,-670.8237,-2267.418,-91.70876,106.1852,0,0
43.36409,-16543.24,-354.7393,-697.5778,-2259.415,-92.81116,97.77364,0,0
43.39725,-16555.81,-373.9789,-727.9171,-2253.328,-115.137,122.3134,0,0
43.43042,-16545.34,-345.4571,-717.7317,-2257.584,-111.0011,123.2688,0,0
43.44701,-16571.53,-383.4612,-706.4617,-2252.021,-107.1027,137.1727,0,0
43.49677,-16508.31,-387.0114,-642.3293,-2256.677,-88.15755,147.6558,0,0
43.54652,-16462.1,-354.2054,-646.4441,-2260.279,-92.62623,148.0107,0,0
43.59628,-16508.78,-342.3874,-642.9816,-2263.064,-101.9876,173.0085,0,0
43.59628,-16517.91,-327.8346,-660.3108,-2260.784,-96.78724,170.8374,0,0
43.64603,-16540.36,-365.5029,-638.1265,-2263.494,-96.78436,166.7005,0,0
43.69579,-16530.87,-363.3015,-652.2081,-2261.153,-73.89118,131.7102,0,0
43.72896,-16478.1,-340.5487,-616.4758,-2254.949,-87.24862,152.3854,0,0
43.72896,-16515.31,-375.2303,-636.8487,-2259.095,-98.68938,170.4852,0,0
43.77871,-16457.35,-355.2099,-655.8152,-2253.43,-115.8303,159.1489,0,0
43.82847,-16459.61,-344.3138,-624.9138,-2249.127,-110.1497,139.7014,0,0
43.82847,-16476.94,-326.0284,-652.2816,-2245.875,-114.979,166.1545,0,0
43.87822,-16511.31,-327.6064,-662.1597,-2252.295,-93.49987,165.0952,0,0
43.9114,-16497.71,-327.769,-697.3958,-2257.241,-89.59157,175.9289,0,0
43.96116,-16523.85,-363.4017,-713.1928,-2252.182,-67.01588,170.0861,0,0
43.96116,-16467.37,-355.2061,-669.7614,-2261.63,-49.85934,175.8605,0,0
44.01091,-16516.14,-355.5692,-680.7924,-2264.438,-39.65527,182.4849,0,0
44.04408,-16511.34,-348.0837,-689.188,-2266.584,-50.02216,186.4215,0,0
44.04408,-16534.22,-367.8411,-683.3628,-2272.65,-78.04426,202.14,0,0
44.09383,-16535.04,-344.158,-667.7742,-2263.98,-102.3393,191.1177,0,0
44.14359,-16487.95,-345.9848,-655.8276,-2257.341,-87.16143,179.0369,0,0
44.16018,-16507.31,-339.6438,-677.7172,-2256.704,-87.49191,183.6243,0,0
44.22652,-16476.71,-356.9738,-731.0011,-2265.095,-93.32401,151.39,0,0
44.22652,-16468.85,-366.9062,-746.1617,-2267.085,-101.9678,135.3514,0,0
44.27627,-16520.51,-398.8466,-767.554,-2264.168,-96.67953,89.37502,0,0
44.32603,-16542.29,-389.9587,-732.7483,-2257.502,-98.73775,92.30993,0,0
44.3592,-16577.7,-400.7951,-708.1819,-2261.274,-96.16827,106.0907,0,0
44.3592,-16528.19,-352.4902,-725.8633,-2264.167,-105.0164,110.6856,0,0
44.40895,-16457,-324.3821,-709.3871,-2261.948,-108.4605,119.3064,0,0
44.45871,-16497.88,-360.548,-684.5262,-2264.684,-115.2368,150.0925,0,0
44.45871,-16536.96,-342.8118,-674.3561,-2262.343,-116.7946,161.4916,0,0
44.50846,-16564.58,-350.3138,-637.793,-2256.122,-73.64274,142.2322,0,0
44.54164,-16492.54,-336.1322,-601.047,-2260.237,-66.42992,166.0127,0,0
44.59139,-16461.79,-323.1052,-568.673,-2254.532,-89.24117,169.2388,0,0
44.59139,-16435.04,-289.9423,-642.7386,-2254.614,-115.8731,200.2018,0,0
44.64114,-16469,-313.4434,-675.148,-2259.125,-85.82134,175.6154,0,0
44.67431,-16477.36,-314.9071,-651.2086,-2253.724,-90.54088,185.552,0,0
44.67431,-16455.01,-343.8008,-680.5599,-2249.606,-106.3622,177.312,0,0
44.70748,-16455.73,-316.0783,-708.5468,-2259.775,-105.4428,177.8875,0,0
44.74064,-16497.37,-364.7134,-730.9926,-2267.563,-90.04652,157.5185,0,0
44.75723,-16542.53,-356.4841,-709.2665,-2264.646,-92.68256,174.8916,0,0
44.80698,-16582.54,-383.3904,-668.179,-2257.973,-63.14437,171.5474,0,0
44.85674,-16556.47,-357.3755,-660.0043,-2261.733,-47.81301,161.4889,0,0
44.88991,-16564.08,-361.8053,-627.1976,-2255.748,-31.75946,160.9929,0,0
44.90649,-16581.95,-376.2436,-623.2418,-2264.471,-25.70872,157.8494,0,0
44.97275,-16548.93,-370.6176,-635.8408,-2257.847,-5.997929,127.2064,0,0
44.97275,-16500.29,-368.4782,-617.8748,-2261.645,-17.40862,141.4936,0,0
45.006,-16452.01,-353.5069,-635.2571,-2264.551,-24.36201,134.2008,0,0
45.03918,-16432.91,-315.4543,-637.5609,-2266.767,-33.13939,142.8024,1,0
45.05576,-16457.24,-336.2575,-639.3877,-2259.588,-47.16264,142.5021,1,0
45.1221,-16522.52,-343.3584,-651.9195,-2254.094,-57.96291,156.1556,1,0
45.13869,-16498.23,-335.5174,-652.6747,-2254.336,-60.72719,154.7027,1,0
45.18809,-16531.71,-353.9186,-631.1159,-2254.537,-75.33175,148.3329,1,0
45.20503,-16558.39,-361.3493,-605.8152,-2254.705,-98.41237,153.1686,1,0
45.22161,-16507.8,-362.5786,-623.1257,-2259.277,-90.54041,150.2316,1,0
45.28796,-16541.06,-372.3517,-637.5654,-2262.779,-86.40871,183.7231,1,0
45.28796,-16585.29,-388.6454,-687.4337,-2256.592,-45.54906,153.3567,1,0
45.32112,-16548.08,-404.357,-681.2236,-2260.724,-32.33298,176.6423,1,0
45.35429,-16559.38,-387.4641,-715.1793,-2255.023,-36.43374,194.1485,1,0
45.38747,-16515.87,-376.6715,-711.1285,-2250.67,-25.5298,173.4022,1,0
45.42064,-16472.59,-365.0405,-740.0309,-2247.357,-32.23815,185.7344,1,0
45.48697,-16532.62,-355.0133,-739.821,-2253.711,-40.77856,160.4992,1,0
45.48697,-16495.45,-338.484,-720.6543,-2258.588,-46.81969,148.6584,1,0
45.52015,-16448.21,-336.9552,-721.3694,-2257.889,-62.8386,136.8546,1,0
45.55331,-16455.41,-349.1288,-691.8929,-2257.355,-71.50188,118.7354,1,0
45.60307,-16428.93,-360.6844,-737.9699,-2265.81,-76.17425,110.7756,1,0
45.60307,-16450.93,-366.1992,-724.363,-2263.404,-58.39432,95.65303,1,0
45.65282,-16416.95,-354.8904,-724.9183,-2265.98,-57.25488,95.84693,1,0
45.70258,-16416.61,-339.5902,-755.1546,-2259.074,-45.31817,71.20269,1,0
45.73575,-16420.98,-342.3182,-769.2782,-2262.649,-30.9576,82.70447,1,1
45.75233,-16462.15,-367.7039,-700.1404,-2265.378,9.321872,50.39204,1,1
45.7855,-16470.47,-371.6033,-660.4803,-2267.453,18.95058,42.20577,1,1
45.83526,-16572.16,-345.7493,-660.1032,-2264.592,44.1466,20.9278,1,1
45.83526,-16591.1,-370.2919,-680.939,-2266.823,66.25714,3.234322,1,1
45.88502,-16500.12,-363.5714,-638.2015,-2259.653,83.47279,-32.18141,1,1
45.93478,-16496.92,-373.9196,-591.199,-2254.165,109.6543,-63.37403,1,1
45.98454,-16511.09,-405.068,-516.6636,-2254.41,96.68106,-46.68962,1,1
45.98454,-16476.48,-385.603,-478.8168,-2254.612,88.11904,-69.01619,1,1
46.03429,-16450.03,-382.8262,-497.9333,-2250.348,70.78528,-98.74659,1,1
46.05088,-16530.69,-410.5621,-522.9299,-2247.105,63.13047,-141.5744,1,1
46.11722,-16497.1,-401.7769,-501.3888,-2253.514,89.78031,-203.4925,1,1
46.11722,-16464.73,-420.445,-476.3744,-2254.001,116.3328,-233.9353,1,1
46.16697,-16505.37,-450.1241,-415.5066,-2254.385,181.8103,-302.0004,1,1
46.20015,-16517.64,-495.9253,-388.2387,-2254.687,230.9782,-339.4805,1,1
46.21673,-16529.19,-530.7089,-404.4596,-2254.925,273.1033,-368.729,1,1
46.26648,-16457.08,-538.1569,-296.6024,-2255.114,304.2249,-407.438,1,1
46.29965,-16409.72,-566.7729,-228.0137,-2241.971,274.2587,-382.17,1,1
46.29965,-16435.7,-610.4408,-161.9212,-2240.806,240.5512,-363.1386,1,1
46.3494,-16471.23,-667.768,-121.1148,-2239.952,216.5505,-359.7732,1,1
46.38256,-16443.09,-641.2813,-138.4879,-2248.197,190.0917,-330.2308,1,1
46.39914,-16457.09,-681.4354,-111.6882,-2250.094,186.7574,-304.0154,1,1
46.42906,-16440.19,-704.972,-40.00183,-2247.126,178.995,-277.3938,1,1
46.46548,-16431.77,-736.8087,-9.396866,-2249.302,155.1331,-230.3324,1,1
46.49865,-16448.71,-761.6638,-43.49773,-2242.115,156.6767,-218.1577,1,1
46.54822,-16390.85,-782.2571,-18.43985,-2241.071,149.4276,-216.3974,1,1
46.56499,-16443.12,-870.4742,-4.591967,-2249.162,128.5461,-172.2212,1,1
46.59816,-16417.86,-869.6069,19.52282,-2246.502,103.0975,-124.2081,1,1
46.63134,-16442.95,-850.428,-6.114676,-2248.91,84.185,-109.6553,1,1
46.64781,-16399.07,-779.6521,15.56465,-2246.329,91.09231,-126.5705,1,1
46.69767,-16463.12,-770.3861,28.04656,-2257.658,114.1495,-129.5932,1,1
46.73085,-16474.49,-828.2079,81.13629,-2257.456,147.0227,-166.0043,1,1
46.76402,-16444.4,-861.9553,138.6492,-2261.718,169.8869,-194.9353,1,1
46.7806,-16413.64,-883.8664,223.8322,-2256.096,171.7442,-239.3985,1,1
46.84694,-16417.9,-901.1276,230.3501,-2251.783,131.4867,-248.8511,1,1
46.88012,-16398,-892.666,258.6579,-2248.483,92.04247,-262.7815,1,1
46.92987,-16420.56,-854.5936,283.7011,-2241.534,73.25706,-268.7654,1,1
46.92987,-16437.92,-858.2233,337.263,-2240.671,87.77914,-250.3856,1,1
46.94622,-16460.1,-864.9979,359.4188,-2235.605,110.8704,-266.3061,1,1
47.01279,-16488.14,-920.7165,370.8311,-2236.195,118.8623,-254.4576,1,1
47.02938,-16469.65,-930.7174,440.5209,-2236.679,118.5971,-204.7699,1,1
47.06255,-16441.04,-913.4732,440.6245,-2241.512,135.5517,-227.8781,1,1
47.11231,-16435.79,-878.7615,430.7167,-2249.662,130.479,-220.265,1,1
47.11231,-16399.68,-886.1732,469.7274,-2242.605,148.7132,-248.9741,1,1
47.14548,-16395.43,-924.7329,543.9445,-2241.647,113.5755,-233.147,1,1
47.19524,-16410.02,-877.3976,513.1735,-2249.791,77.54018,-187.1416,1,1
47.24499,-16480,-977.1274,556.138,-2247.16,53.91929,-128.3909,1,1
47.24499,-16438.22,-992.054,656.6257,-2249.578,-67.04827,-60.01961,1,1
47.29475,-16540.3,-1030.664,623.7319,-2246.994,-58.43822,-117.9264,1,1
47.32792,-16534.04,-1060.759,583.021,-2240.587,-43.98788,-97.61265,1,1
47.32792,-16491.39,-1027.795,558.6399,-2235.699,5.066582,-95.26879,1,1
47.37768,-16474.15,-977.6799,608.9111,-2240.846,30.35446,-88.67735,1,1
47.42744,-16440.98,-971.0764,605.4909,-2240.37,27.12652,-76.90005,1,1
47.42744,-16431.13,-920.2789,646.3199,-2240.021,44.99265,-84.15614,1,1
47.46061,-16421.43,-926.6208,708.7956,-2230.905,84.22334,-125.3436,1,1
47.51036,-16414.09,-878.1147,743.4364,-2223.961,88.47962,-79.68507,1,1
47.54353,-16393.06,-961.6628,727.9352,-2227.556,127.7077,-31.88592,1,1
47.54353,-16354.94,-922.3524,757.2205,-2234.779,114.1371,-44.03458,1,1
47.59326,-16341.48,-876.5942,822.997,-2240.328,89.25808,-105.9178,1,1
47.64301,-16383.48,-819.369,820.2329,-2240.151,76.00154,-82.20197,1,1
47.64301,-16452.33,-852.0961,780.5625,-2244.452,104.6343,-113.4693,1,1
47.69278,-16433,-851.6975,812.4854,-2252.172,111.8213,-96.19234,1,1
47.70937,-16430.39,-817.072,833.8376,-2244.765,107.2817,-57.56991,1,1
47.70937,-16411.79,-847.1602,891.4064,-2234.658,102.0865,-35.37055,1,1
47.7923,-16363.26,-891.2724,969.9711,-2235.802,53.75433,5.783103,1,1
47.82547,-16464.75,-817.5111,900.5244,-2245.556,-35.52209,103.7378,1,1
47.84206,-16485.88,-748.9456,866.4179,-2239.723,-31.31332,87.10669,1,1
47.87523,-16494.17,-785.326,883.8726,-2239.694,-15.09367,69.21485,1,1
47.9084,-16422.83,-776.7805,921.9747,-2235.247,11.37762,54.02558,1,1
47.94157,-16411.45,-752.6796,887.2128,-2231.857,54.76368,59.24179,1,1
47.94157,-16372.89,-797.5858,925.2914,-2229.286,106.2828,28.0212,1,1
48.00791,-16346.84,-830.959,953.7297,-2231.776,111.2852,14.1361,1,1
48.05766,-16359.22,-869.8184,1015.748,-2233.703,64.32359,2.215331,1,1
48.05766,-16420.93,-836.3469,990.3756,-2230.763,9.263569,-3.731739,1,1
48.07425,-16462.64,-819.5833,1006.762,-2224.101,-7.277874,-8.406107,1,1
48.14059,-16456.83,-834.4852,1052.909,-2227.898,-5.372269,-23.1662,1,1
48.17376,-16431.26,-729.5809,1118.453,-2230.831,-12.8967,-84.38131,1,1
48.20693,-16438.26,-760.2904,1159.965,-2241.955,32.46599,-87.96227,1,1
48.20693,-16372.69,-736.3356,1157.548,-2241.599,43.98419,-70.11935,1,1
48.27327,-16369.15,-731.5015,1192.455,-2245.749,62.51499,-76.07764,1,1
48.28986,-16392.04,-774.5417,1145.128,-2244.476,61.44466,-85.29329,1,1
48.30644,-16437.35,-813.1361,1139.132,-2247.917,96.05197,-105.2928,1,1
48.35619,-16421.03,-799.4858,1154.872,-2237.237,64.56396,-69.53021,1,1
48.38936,-16396.36,-753.6188,1121.896,-2229.064,42.64607,-60.95412,1,1
48.43912,-16374.2,-769.5994,1130.39,-2222.829,64.38998,-87.3409,1,1
48.43912,-16383.93,-802.98,1186.162,-2226.955,65.78364,-41.28754,1,1
48.47229,-16393.68,-813.0413,1251.446,-2225.708,55.4705,-13.54922,1,1
48.53863,-16408.95,-767.5573,1234.164,-2220.349,59.48334,2.871588,1,1
48.53863,-16458.32,-715.1011,1301.085,-2225.146,22.11214,18.07144,1,1
48.57165,-16431.76,-791.47,1298.318,-2237.706,31.79682,35.90863,1,1
48.63814,-16360.43,-764.6658,1370.748,-2247.316,20.15556,67.08741,1,1
48.65472,-16345.83,-766.3819,1389.847,-2245.783,-14.71396,142.2072,1,1
48.68789,-16335.92,-766.6633,1331.559,-2244.586,-4.97667,86.85348,1,1
48.68789,-16371.72,-800.1833,1307.261,-2248.081,-10.96723,148.0514,1,1
48.73765,-16393.67,-801.4644,1242.618,-2250.729,4.5179,144.6542,1,1
48.80399,-16328.52,-805.7533,1291.285,-2248.295,9.815422,148.8795,1,1
48.80399,-16380.74,-803.4734,1219.462,-2237.544,25.01978,156.7365,1,1
48.87033,-16363.16,-819.4345,1219.536,-2238.178,34.19911,112.8164,1,1
48.87033,-16345.35,-812.7682,1233.69,-2225.37,10.4926,106.6447,1,1
48.90351,-16355.1,-787.6873,1258.607,-2224.457,-8.981668,105.3099,1,1
48.96985,-16383.71,-789.5568,1274.001,-2219.359,-43.72829,120.4334,1,1
48.96985,-16365.75,-783.2532,1290.947,-2224.36,-63.78183,116.8382,1,1
48.98643,-16389.72,-780.6758,1248.135,-2232.648,-92.76489,129.3957,1,1
49.05278,-16447.96,-787.6025,1261.608,-2225.708,-62.61419,101.9587,1,1
49.08595,-16386.06,-794.0333,1308.191,-2229.279,-62.60279,119.3061,1,1
49.10254,-16389.65,-800.0681,1288.083,-2232.026,-70.72412,134.0769,1,1
49.1357,-16381.32,-793.5992,1287.88,-2225.273,-63.46107,138.8177,1,1
49.18546,-16373.86,-810.8065,1280.78,-2228.986,-56.35491,132.5551,1,1
49.18546,-16421.37,-808.436,1277.294,-2227.41,-67.95041,141.157,1,1
49.21863,-16443.27,-786.6515,1254.443,-2226.218,-58.11889,137.3121,1,1
49.26839,-16508.66,-798.7984,1189.137,-2220.89,-20.00385,116.7554,1,1
49.28497,-16443.25,-824.7104,1247.688,-2221.27,-10.4578,126.111,1,1
49.31814,-16409.69,-834.5139,1253.6,-2230.449,-14.50242,160.8466,1,1
49.35131,-16379.54,-830.8555,1266.836,-2224.187,1.797789,139.0553,1,1
49.40107,-16427.41,-856.7842,1308.92,-2223.841,-4.859604,160.7302,1,1
49.40107,-16419.7,-874.2914,1274.409,-2228.024,-13.29189,150.8364,1,1
49.45082,-16399.36,-849.8663,1253.354,-2226.802,-40.23353,165.5475,1,1
49.50058,-16381.58,-814.4492,1267.032,-2221.444,-44.44968,158.0829,1,1
49.50058,-16391.29,-798.4003,1207.578,-2221.794,-7.718204,117.6027,1,1
49.53375,-16361.08,-828.2388,1244.043,-2222.081,-49.9516,181.2832,1,1
49.56691,-16376.83,-805.6238,1240.872,-2217.887,-47.02854,158.1222,1,1
49.5835,-16356.81,-784.998,1299.309,-2227.996,-38.06722,146.3561,1,1
49.63326,-16332.72,-810.256,1333.885,-2222.443,-59.12689,162.7365,1,1
49.64984,-16343.24,-793.0369,1302.485,-2222.636,-54.93677,163.8001,1,1
49.64984,-16363.59,-814.2339,1327.005,-2231.66,-65.21647,168.9264,1,1
49.69959,-16339.36,-795.0016,1318.964,-2234.128,-58.02983,157.2173,1,1
49.76594,-16354.15,-798.034,1292.671,-2236.004,-53.83221,145.1151,1,1
49.79911,-16344.51,-828.0754,1283.493,-2232.99,-58.5845,167.0876,1,1
49.84887,-16294.02,-831.0892,1268.616,-2239.535,-56.61142,181.0369,1,1
49.86546,-16296.56,-834.4518,1223.938,-2231.228,-45.06627,153.0889,1,1
49.89863,-16364.05,-792.6565,1240.742,-2220.432,-1.574155,56.85336,1,1
49.94838,-16383.63,-859.2935,1231.465,-2212.187,-28.16597,124.5844,1,1
49.94838,-16380.86,-858.134,1234.365,-2214.777,-42.71609,143.491,1,1
49.99814,-16419.71,-873.7565,1325.236,-2216.791,-48.28804,133.8303,1,1
50.03131,-16422.77,-883.365,1365.819,-2213.928,-50.85122,126.9698,1,1
50.03131,-16418.35,-877.2753,1356.735,-2220.629,-65.23133,154.12,1,1
50.08107,-16358.37,-838.1403,1386.096,-2216.91,-75.61127,182.8758,1,1
50.13079,-16444.33,-838.0555,1368.399,-2218.515,-64.90607,184.8243,1,1
50.13079,-16372.62,-850.1484,1414.432,-2210.898,-71.32111,202.5298,1,1
50.16399,-16341.01,-791.7765,1400.601,-2213.961,-73.1086,211.4939,1,1
50.21375,-16394.45,-783.7254,1372.002,-2225.193,-73.29157,197.4123,1,1
50.23033,-16321.23,-768.7991,1348.797,-2229.359,-72.80376,200.6238,1,1
50.23033,-16307.4,-777.4412,1354.159,-2232.534,-69.03811,170.2714,1,1
50.28008,-16337.97,-786.3768,1360.342,-2230.515,-76.34602,170.5199,1,1
50.32984,-16367,-795.5103,1348.314,-2228.954,-87.41049,170.6606,1,1
50.34642,-16354.9,-802.5537,1372.229,-2214.455,-88.86616,156.0429,1,1
50.36301,-16385.55,-814.6241,1371.549,-2212.241,-87.39732,138.1937,1,1
50.42935,-16404.56,-799.4947,1393.035,-2223.869,-90.62156,149.4855,1,1
50.44574,-16411.28,-815.6413,1383.815,-2215.047,-74.4492,160.6286,1,1
50.44574,-16387.53,-792.5506,1378.812,-2208.313,-65.34729,182.1555,1,1
50.49569,-16411.41,-815.9096,1337.177,-2207.623,-57.80585,188.3193,1,1
50.54545,-16388.63,-828.249,1317.451,-2198.268,-52.58598,194.3409,1,1
50.57861,-16412.14,-823.2592,1333.383,-2208.885,-63.83453,181.1344,1,1
50.57861,-16446.69,-811.6613,1290.169,-2208.179,-72.98699,176.7823,1,1
50.64495,-16453.04,-855.9618,1300.367,-2212.097,-87.16039,175.0692,1,1
50.71129,-16455.53,-843.2553,1327.061,-2206.251,-98.49976,203.0784,1,1
50.71129,-16447.3,-824.5999,1302.067,-2215.098,-101.8299,219.4392,1,1
50.76105,-16420.93,-781.4968,1285.192,-2221.879,-61.35927,178.3813,1,1
50.79406,-16395.13,-828.3425,1269.032,-2222.63,-42.28815,189.0112,1,1
50.82739,-16417.48,-830.9492,1239.051,-2218.763,-54.32585,206.5143,1,1
50.82739,-16463.35,-840.6664,1232.894,-2224.664,-45.00881,176.8979,1,1
50.89373,-16467.29,-861.3461,1266.033,-2229.167,-39.57892,164.7292,1,1
50.94348,-16422.52,-872.6487,1331.385,-2228.158,-64.55415,177.3049,1,1
50.94348,-16453.55,-836.869,1310.464,-2227.365,-72.31324,171.6852,1,1
50.96006,-16427.35,-787.2864,1275.601,-2222.309,-72.41114,171.2572,1,1
51.00982,-16380.66,-769.3512,1260.06,-2222.863,-73.01406,172.8671,1,1
51.00982,-16407.01,-828.8605,1217.247,-2218.85,-88.68211,210.0985,1,1
51.07616,-16439.37,-852.2489,1257.784,-2224.644,-82.89248,183.677,1,1
51.10933,-16399.83,-815.7991,1280.054,-2220.207,-72.04498,181.1459,1,1
51.10933,-16385.08,-792.3359,1250.616,-2221.242,-70.09272,168.1121,1,1
51.15909,-16359.44,-789.9495,1223.748,-2222.033,-82.15778,158.7003,1,1
51.20885,-16312.23,-764.93,1257.62,-2218.204,-80.2791,168.9775,1,1
51.24202,-16341.67,-786.8886,1274.767,-2219.709,-82.68575,188.765,1,1
51.25861,-16324.46,-788.2609,1259.121,-2220.864,-103.3251,196.4004,1,1
51.30836,-16320.32,-843.6549,1316.997,-2221.747,-94.39684,119.1072,1,1
51.34153,-16319.54,-854.9772,1306.952,-2217.989,-105.2281,126.248,1,1
51.39129,-16333.5,-846.9327,1270.409,-2223.98,-94.05515,75.04874,1,1
51.39129,-16378.66,-851.7787,1276.811,-2237.422,-98.19101,47.97833,1,1
51.40787,-16336.8,-796.6957,1311.646,-2229.949,-142.8446,74.60793,1,1
51.42446,-16407.89,-802.2101,1270.682,-2237.501,-138.9345,103.2267,1,1
51.47422,-16357.01,-799.8247,1255.973,-2238.816,-121.1213,129.4122,1,1
51.52397,-16405.62,-805.7957,1256.969,-2230.922,-115.9768,156.1584,1,1
51.55714,-16381.85,-800.4235,1232.318,-2220.43,-94.79328,162.4963,1,1
51.57373,-16383.59,-834.0129,1263.414,-2216.836,-101.5412,184.489,0,1
51.6069,-16348.36,-799.8663,1261.786,-2205.239,-94.48835,194.0464,0,1
51.65665,-16353.59,-851.306,1215.161,-2209.696,-100.4277,214.0044,0,1
51.68982,-16454.03,-838.541,1270.45,-2222.002,-68.11245,180.678,0,1
51.68982,-16449.89,-856.412,1296.179,-2222.562,-54.21972,175.323,0,1
51.75616,-16413.32,-847.8498,1269.3,-2209.695,-65.26437,181.708,0,1
51.77275,-16446.19,-817.9654,1202.207,-2208.735,-75.43229,167.1585,0,1
51.78933,-16364.86,-801.74,1269.544,-2199.166,-85.45589,147.6951,0,1
51.83909,-16371.34,-817.0596,1233.591,-2196.322,-87.31235,131.163,0,1
51.87226,-16386.31,-839.8768,1261.542,-2198.63,-90.66563,141.5615,0,1
51.88884,-16343.5,-807.4509,1311.765,-2200.443,-97.09608,156.4888,0,1
51.93859,-16338.51,-801.4891,1332.393,-2206.302,-95.06716,153.5209,0,1
51.97177,-16313.76,-819.1265,1325.887,-2210.811,-102.6305,171.7533,0,1
52.05469,-16385.82,-802.7224,1324.107,-2218.706,-87.88817,157.7084,0,1
52.07127,-16339.05,-772.4775,1281.644,-2220.312,-95.70766,163.0193,0,1
52.10445,-16366.49,-767.1541,1215.892,-2221.53,-88.10392,142.9802,0,1
52.10445,-16414.11,-813.046,1200.041,-2213.586,-83.94222,126.289,0,1
52.1542,-16416.14,-808.3054,1260.093,-2211.94,-87.41116,120.2304,0,1
52.18737,-16432.01,-801.3644,1298.349,-2210.69,-85.91301,108.4757,0,1
52.20396,-16454.01,-830.4199,1341.98,-2205.313,-91.97015,115.6467,0,1
52.22054,-16428.59,-821.6066,1319.833,-2201.22,-97.70483,130.6392,0,1
52.28688,-16407.92,-800.4376,1286.157,-2198.118,-97.36362,133.5782,0,1
52.28688,-16373.22,-805.3092,1247.061,-2204.644,-91.26447,146.1113,0,1
52.32005,-16397.65,-797.9802,1197.263,-2205.229,-84.09561,146.0181,0,1
52.32005,-16374.24,-795.7269,1239.086,-2201.264,-91.35738,159.5211,0,1
52.35323,-16329.76,-805.1183,1261.221,-2207.116,-89.71026,163.7388,0,1
52.41957,-16351.24,-797.9219,1272.655,-2211.609,-96.7552,165.2695,0,1
52.46933,-16357.8,-776.9329,1259.25,-2206.185,-98.80704,173.6037,0,1
52.46933,-16351.81,-774.2339,1241.259,-2197.614,-89.00029,178.8212,0,1
52.51908,-16307.41,-822.0992,1292.913,-2199.946,-91.4633,170.8418,0,1
52.53567,-16388.81,-827.6934,1267.047,-2197.324,-95.00671,183.7987,0,1
52.53567,-16358.04,-823.0657,1267.188,-2195.347,-107.4008,216.3585,0,1
52.58498,-16436.46,-785.1452,1236.285,-2198.297,-86.66205,192.4013,0,1
52.65125,-16413.26,-823.7428,1281.385,-2209.442,-79.93229,197.5185,0,1
52.65125,-16320.1,-813.3779,1288.192,-2209.109,-101.3925,220.1821,0,1
52.6844,-16341.96,-836.449,1249.044,-2213.283,-120.2904,252.0775,0,1
52.73413,-16326.66,-840.7555,1260.108,-2212.035,-121.1199,243.6149,0,0
52.73413,-16292.91,-826.2561,1251.982,-2211.07,-145.5048,282.936,0,0
52.78385,-16339.27,-832.8455,1277.924,-2214.756,-160.7305,296.4471,0,0
52.83358,-16382.59,-809.0406,1278.931,-2208.702,-176.6685,338.0903,0,0
52.86673,-16420.15,-808.5503,1286.321,-2208.498,-186.7525,375.4341,0,0
52.86673,-16405.58,-860.2541,1285.291,-2199.48,-225.5744,412.1866,0,0
52.91645,-16471.9,-838.803,1244.584,-2205.891,-261.3938,428.7593,0,0
52.96618,-16436.03,-812.3539,1179.133,-2210.806,-287.6439,457.0096,0,0
52.96618,-16449.41,-791.006,1161.358,-2210.132,-310.4008,488.0694,0,0
52.99934,-16455.07,-784.6922,1194.518,-2205.181,-298.8784,463.9077,0,0
53.04906,-16393.88,-848.6152,1302.038,-2210.26,-356.1535,511.9342,0,0
53.08221,-16308.24,-917.4188,1345.48,-2214.144,-485.1009,772.7338,0,0
53.09879,-16294.93,-941.0571,1336.437,-2203.811,-693.2968,1056.836,0,0
53.13194,-16348.09,-780.5162,1075.648,-2209.204,-799.7045,1229.389,0,0
53.18166,-16442.05,-735.2503,958.3945,-2208.901,-796.4159,1285.476,0,0
53.18166,-16369.83,-694.158,840.517,-2204.237,-838.0018,1336.286,0,0
53.21481,-16407.61,-620.8971,640.425,-2205.106,-814.4967,1263.686,0,0
53.24823,-16508.49,-512.0843,406.6071,-2196.918,-712.7564,1085.526,0,0
53.31454,-16510.1,-543.5612,529.6377,-2203.968,-696.2664,1101.522,0,0
53.31454,-16530.98,-613.66,535.5627,-2200.512,-759.5431,1133.558,0,0
53.36429,-16598.72,-565.7947,335.4059,-2202.313,-745.316,1070.965,0,0
53.38087,-16622.44,-409.9725,173.9346,-2203.703,-650.5042,925.889,0,0
53.43061,-16418.54,-494.2036,228.4815,-2195.912,-505.3388,752.1229,0,0
53.43061,-16364.35,-510.525,254.3232,-2194.403,-484.0105,610.0125,0,0
53.48035,-16404.98,-485.8559,240.299,-2197.706,-504.6668,559.7883,0,0
53.51351,-16369.66,-430.9391,197.9073,-2200.252,-458.28,406.3834,0,0
53.51351,-16393.71,-407.2452,215.785,-2188.92,-414.6834,336.3397,0,0
53.57983,-16387.8,-384.2157,267.4935,-2193.573,-351.7273,277.9138,0,0
53.62957,-16401.07,-326.2637,297.2664,-2197.161,-303.1737,293.5644,0,0
53.66272,-16415.7,-276.0138,254.7121,-2191.059,-269.0755,320.4309,0,0
53.66272,-16430.23,-246.1394,186.7268,-2195.278,-233.9236,327.8072,0,0
53.69588,-16391.46,-269.5556,192.422,-2202.955,-219.6297,318.2675,0,0
53.74561,-16421.65,-231.7539,149.209,-2208.831,-245.6881,355.8631,0,0
53.74561,-16411.52,-243.5041,128.4063,-2208.883,-256.0296,343.019,0,0
53.79536,-16482.42,-255.4574,83.75648,-2204.475,-249.0301,335.3163,0,0
53.8451,-16467.87,-257.5263,51.9053,-2205.527,-229.0286,319.0798,0,0
53.91142,-16486.52,-250.8766,52.01733,-2193.032,-203.81,288.2901,0,0
53.91142,-16484.03,-234.2085,72.1031,-2187.919,-195.1316,289.3313,0,0
53.928,-16500.81,-230.9234,32.03916,-2184.038,-193.8553,313.6059,0,0
53.99432,-16479.14,-216.8107,35.68753,-2189.971,-168.0406,307.1187,0,0
53.99432,-16510.08,-267.5234,18.45432,-2181.245,-163.359,309.1965,0,0
54.04406,-16526.94,-279.0948,4.048915,-2187.901,-175.4012,323.8984,0,0
54.0938,-16483.14,-277.2612,31.66796,-2193.024,-194.9363,384.4915,0,0
54.0938,-16411.85,-218.6186,70.29623,-2196.96,-210.7266,340.7552,0,0
54.12695,-16400.55,-245.1018,96.16607,-2199.975,-287.8493,408.0493,0,0
54.17669,-16408.61,-210.3858,21.32501,-2197.848,-366.595,495.6553,0,0
54.17669,-16486.87,-173.1823,-61.80285,-2205.083,-392.6664,531.8565,0,0
54.20985,-16495.73,-162.9401,-96.83855,-2210.605,-367.2739,504.8011,0,0
54.25959,-16487.98,-161.1516,-66.21535,-2201.511,-370.955,530.197,0,0
54.30933,-16514.07,-160.2725,-169.3389,-2194.542,-391.3577,592.6555,0,0
54.30933,-16533.89,-123.5071,-238.4128,-2189.218,-379.6572,561.4964,0,0
54.35907,-16557.73,-168.9977,-224.8098,-2194.026,-396.0341,467.8864,0,0
54.40881,-16608.98,-132.2115,-253.2385,-2193.287,-390.1205,490.095,0,0
54.40881,-16547.07,-88.99017,-252.9115,-2192.733,-363.8396,506.4921,0,0
54.44197,-16559.29,-88.55439,-302.6328,-2192.321,-344.7443,508.4333,0,0
54.49171,-16565.13,-77.6463,-276.5089,-2196.449,-345.6023,554.1425,0,0
54.54145,-16528.41,-27.69891,-272.193,-2190.75,-347.0597,575.3781,0,0
54.57461,-16530.09,26.57046,-263.5894,-2186.402,-385.5318,571.7418,0,0
54.59119,-16532.39,19.8005,-231.8308,-2178.666,-459.1802,659.3094,0,0
54.62434,-16549.55,105.9309,-361.927,-2172.785,-551.0092,758.3556,0,0
54.67408,-16563.66,132.3044,-446.1893,-2172.766,-600.3359,738.3035,0,0
54.67408,-16590.91,-2.307502,-515.1501,-2181.665,-645.0012,638.2187,0,0
54.72383,-16558.39,71.41421,-580.0466,-2188.506,-702.6405,660.4626,0,0
54.75698,-16535.57,166.0306,-658.3607,-2189.322,-644.3777,597.7018,0,0
54.80672,-16453.78,171.2133,-631.6226,-2181.09,-504.1965,488.0211,0,0
54.80672,-16440.02,177.741,-664.1716,-2183.676,-362.0311,501.6528,0,0
54.83988,-16523.8,208.5893,-652.3771,-2190.104,-231.7126,830.9489,0,0
54.88962,-16596.77,109.5818,-669.8725,-2195.029,-73.93238,719.5834,0,0
54.93936,-16533.88,60.97595,-617.8707,-2194.359,-65.24638,671.3035,0,0
54.9891,-16569.85,36.70381,-652.426,-2193.837,-92.87435,627.1525,0,0
54.9891,-16610.55,77.66879,-775.3851,-2202.295,-79.51546,547.5091,0,0
55.03884,-16522.94,83.20233,-788.5486,-2195.451,-45.5692,452.5183,0,0
55.072,-16454.74,56.07368,-752.0209,-2199.065,-97.26771,458.7178,0,0
55.072,-16445.88,80.45812,-809.4267,-2201.816,-160.0999,504.9794,0,0
55.12174,-16434.82,92.17577,-866.6708,-2203.9,-186.1348,534.988,0,0
55.17148,-16449.8,52.08714,-851.7097,-2201.039,-188.8975,486.282,0,0
55.17148,-16480.24,81.00852,-874.6187,-2194.4,-230.0401,485.9826,0,0
55.20464,-16534.62,105.1074,-997.4302,-2198.178,-229.5585,461.5335,0,0
55.25438,-16534.09,165.352,-1100.126,-2196.63,-180.0278,415.0424,0,0
55.25438,-16505.91,202.188,-1108.594,-2195.44,-131.2697,351.4959,0,0
55.30412,-16436.71,167.862,-1081.533,-2194.526,-109.2388,292.1955,0,0
55.33728,-16416,153.3796,-1109.387,-2193.826,-90.81171,231.0008,0,0
55.35386,-16383.74,143.0691,-1047.466,-2202.154,-93.16849,185.9183,0,0
55.37043,-16436.85,147.0739,-1061.038,-2195.219,-115.5656,162.1052,0,0
55.42017,-16454.38,145.4292,-1051.57,-2198.771,-110.029,127.1754,0,0
55.42017,-16450.16,141.6939,-1069.961,-2197.05,-132.3974,140.2727,0,0
55.48689,-16453.66,203.9572,-1056.518,-2191.297,-110.7023,128.8627,0,0
55.53663,-16523.98,184.7919,-1121.809,-2186.901,-57.52247,113.6301,0,0
55.58636,-16480.25,209.6927,-1164.194,-2201.279,-5.271988,134.2406,0,0
55.58636,-16404.67,174.129,-1038.331,-2194.548,37.02443,160.8827,0,0
55.6361,-16352.53,169.9181,-1003.342,-2198.257,23.98974,219.741,0,0
55.66926,-16327.31,196.3844,-1011.467,-2196.658,25.97907,217.7973,0,0
55.68584,-16349.34,158.7728,-1004.98,-2186.568,19.00056,189.2237,0,0
55.70242,-16387.53,138.6698,-989.5627,-2183.293,-5.326004,176.3127,0,0
55.75216,-16456.81,143.1082,-1021.655,-2189.676,-44.23905,178.4503,0,0
55.75216,-16431.21,160.7943,-1009.201,-2190.142,-72.88395,153.8643,0,0
55.78532,-16491.42,159.7854,-980.4201,-2190.507,-86.93867,139.0421,0,0
55.85164,-16486.47,161.0898,-1027.853,-2186.364,-125.5066,131.7087,0,0
55.85164,-16467.1,128.7203,-1008.365,-2187.639,-162.2519,96.59254,0,0
55.86822,-16512.07,92.80724,-973.1558,-2184.197,-173.6959,89.28429,0,0
55.91796,-16530.86,109.6593,-940.4135,-2190.444,-146.634,82.48824,0,0
55.96769,-16497.44,114.8043,-918.5137,-2195.232,-127.8235,98.78482,0,0
55.96769,-16507.23,130.9138,-990.2775,-2194.46,-134.21,141.5619,0,0
56.00086,-16503.55,157.5971,-945.2668,-2189.432,-113.0687,127.4992,0,0
56.06718,-16474.06,154.6507,-962.7332,-2190.021,-118.5353,115.0764,0,0
56.06718,-16451.47,165.588,-948.2418,-2186.046,-122.4803,119.1552,0,0
56.11691,-16451.95,183.8122,-1009.027,-2187.448,-136.8809,143.8745,0,0
56.15007,-16439.06,177.6685,-968.8978,-2188.532,-113.0008,88.77625,0,0
56.19981,-16485.76,175.0461,-904.7833,-2189.37,-105.0097,115.0349,0,0
56.19981,-16530.34,164.0554,-887.8248,-2194.447,-105.6008,164.181,0,0
56.23297,-16506.71,148.9055,-913.6602,-2198.327,-95.86423,180.5938,0,0
56.28271,-16550.58,142.7978,-902.4069,-2192.419,-96.79552,204.8551,0,0
56.31587,-16568.48,145.8463,-940.329,-2183.463,-96.74915,228.4181,0,0
56.36561,-16506.64,193.5655,-975.9329,-2185.488,-92.07304,245.8513,0,0
56.36561,-16435.96,177.8905,-958.7224,-2187.052,-83.85927,249.9671,0,0
56.43193,-16394.15,226.7164,-981.9918,-2179.398,-89.56916,268.5299,0,0
56.46508,-16382.28,286.047,-956.4455,-2186.857,-80.99613,268.2054,0,0
56.48166,-16368.99,285.7154,-963.3824,-2179.283,-93.90642,280.2916,0,0
56.49824,-16391.18,260.769,-964.1614,-2182.372,-126.8312,282.1955,0,0
56.56456,-16369.57,238.1006,-933.642,-2189.185,-144.5352,328.6504,0,0
56.56456,-16408.64,270.4184,-1012.172,-2185.539,-150.2673,357.6028,0,0
56.6147,-16453.06,258.3632,-1018.923,-2182.756,-143.2224,345.1264,0,0
56.63128,-16473.79,227.8832,-1020.558,-2180.639,-151.618,353.3186,0,0
56.63128,-16464.13,184.4868,-1047.089,-2179.037,-228.0406,452.9391,0,0
56.69765,-16446.74,213.2878,-1109.246,-2173.4,-250.3016,413.7995,0,0
56.69765,-16529.83,215.3242,-1055.642,-2173.549,-228.5597,342.2009,0,0
56.74741,-16555.61,210.1602,-1024.33,-2173.695,-216.1204,395.7695,0,0
56.78058,-16537.45,250.4585,-1051.163,-2164.973,-208.9073,380.2745,0,0
56.83034,-16502.32,268.9765,-1121.354,-2167.206,-230.9257,357.094,0,0
56.83034,-16538.49,313.9865,-1127.102,-2168.956,-227.0932,325.0504,0,0
56.88009,-16579.32,319.3633,-1095.699,-2174.761,-217.6115,284.6443,0,0
56.92986,-16584.85,307.6898,-1155.587,-2179.225,-195.8049,270.3391,0,0
56.94645,-16554.49,312.9151,-1167.82,-2173.787,-203.6713,281.5914,0,0
56.96303,-16508.93,279.0138,-1223.32,-2182.936,-191.5937,284.6881,0,0
57.01279,-16567.05,275.0685,-1183.332,-2185.506,-157.9094,230.8498,0,0
57.06255,-16537.15,325.0965,-1196.644,-2183.034,-99.17906,199.735,0,0
57.06255,-16456.55,324.3917,-1203.121,-2172.275,-72.92249,197.9948,0,0
57.11231,-16530.09,301.4732,-1147.873,-2172.922,-49.42843,192.4287,0,0
57.14548,-16447.83,363.5307,-1167.373,-2169.007,-55.78883,200.2756,0,0
57.19524,-16492.43,367.5487,-1190.901,-2170.468,-53.9608,173.4969,0,0
57.19524,-16436.84,391.3858,-1214.147,-2176.041,-59.14835,153.4938,0,0
57.22842,-16445.38,421.4952,-1171.779,-2171.454,-77.43793,156.9925,0,0
57.27818,-16456.45,416.4731,-1221.089,-2176.823,-82.71851,144.3987,0,0
57.27818,-16512.64,400.0934,-1236.36,-2176.508,-83.55691,132.7934,0,0
57.29477,-16452.58,436.0049,-1221.117,-2162.979,-23.37946,118.0811,0,0
57.36112,-16473.15,428.8009,-1222.446,-2157.089,-3.858958,152.2458,0,0
57.3777,-16488.92,411.8847,-1209.891,-2161.49,6.654178,142.3146,0,0
57.41088,-16465.54,396.4523,-1180.103,-2169.327,6.660635,157.0692,0,0
57.46064,-16429.97,355.6202,-1180.408,-2175.344,-24.34873,160.4916,0,0
57.49381,-16397.31,370.7793,-1211.517,-2175.52,-50.49193,162.9746,0,0
57.5104,-16422.37,361.2042,-1152.044,-2171.224,-70.06728,171.0947,0,0
57.56016,-16456.08,381.4639,-1111.988,-2163.512,-67.94385,179.6274,0,0
57.57674,-16446.48,395.7226,-1133.427,-2162.067,-77.73353,184.8499,0,0
57.59333,-16408.18,405.3608,-1108.843,-2165.422,-86.64815,188.352,0,0
57.64309,-16373.46,416.9867,-1152.105,-2168.01,-120.0723,195.2336,0,0
57.69285,-16446.8,410.1768,-1176.31,-2165.574,-120.1163,177.8197,0,0
57.69285,-16462.01,469.0402,-1144.881,-2168.158,-136.1478,188.0935,0,0
57.72602,-16493.6,477.2488,-1189.47,-2170.147,-146.9385,172.1809,0,0
57.77579,-16554.26,461.0704,-1241.201,-2176.106,-180.0067,225.1545,0,0
57.77579,-16538.46,419.6277,-1215.2,-2176.229,-180.4864,288.6474,0,0
57.80828,-16541.7,411.0195,-1209.519,-2176.315,-176.2402,261.1755,0,0
57.85872,-16597.2,407.6403,-1207.233,-2176.372,-157.0408,221.7348,0,0
57.90848,-16541.91,400.5244,-1215.315,-2176.407,-143.6172,223.9124,0,0
57.90848,-16473.96,447.0679,-1206.953,-2176.427,-146.2861,216.1336,0,0
57.95824,-16439.69,479.2014,-1235.88,-2176.434,-123.0551,207.3983,0,0
57.97483,-16475.59,479.1867,-1234.582,-2163.139,-100.8233,212.6301,0,0
57.97483,-16533.01,442.3842,-1214.585,-2157.415,-99.35048,229.0975,0,0
58.04118,-16483.8,451.7369,-1246.797,-2148.639,-91.34095,217.2943,0,0
58.05777,-16482.68,504.1703,-1267.956,-2159.699,-98.00652,221.817,0,0
58.12396,-16532.79,460.9686,-1285.042,-2159.332,-85.9789,210.0274,0,0
58.12396,-16562.19,438.8203,-1322.245,-2163.509,-78.77399,199.3471,0,0
58.14523,-16584.51,399.6191,-1267.32,-2162.29,-74.99831,198.1268,0,0
58.20705,-16505.01,405.0645,-1311.496,-2165.804,-63.60571,241.5392,0,0
58.20705,-16552.69,405.9088,-1307.385,-2164.072,-69.11327,229.5665,0,0
58.24023,-16591.27,397.689,-1316.175,-2167.187,-68.15562,213.4372,0,0
58.30658,-16578.51,384.7643,-1291.633,-2178.438,-59.19853,186.9649,0,0
58.35633,-16503.2,376.0215,-1298.139,-2178.167,-64.07336,194.7325,0,0
58.3895,-16508.7,377.1459,-1305.15,-2173.506,-62.35101,197.1228,0,0
58.3895,-16480.78,398.0051,-1310.324,-2178.79,-63.3313,198.4341,0,0
58.45585,-16527.05,386.2868,-1279.749,-2178.383,-71.35912,190.3287,0,0
58.48903,-16550.25,412.7964,-1265.089,-2182.484,-98.60746,203.0027,0,0
58.50562,-16552.4,408.6908,-1272.627,-2172.302,-126.3807,204.4133,0,0
58.53879,-16530.69,438.7607,-1297.146,-2168.934,-139.5352,203.8423,0,0
58.57196,-16487.43,443.9692,-1310.244,-2166.361,-159.1944,169.9053,0,0
58.58855,-16499.8,452.2903,-1316.788,-2168.834,-172.9922,168.383,0,0
58.63831,-16534.78,417.5604,-1314.985,-2161.87,-190.8631,152.3518,0,0
58.67148,-16489.5,425.2861,-1258.059,-2165.422,-204.8959,105.0269,0,0
58.72124,-16461.53,487.6589,-1325.241,-2159.291,-245.6018,108.3461,0,0
58.72124,-16467.93,533.0151,-1373.19,-2163.484,-254.3033,103.8947,0,0
58.771,-16416.44,539.7651,-1353.132,-2157.846,-257.0516,97.92366,0,0
58.80418,-16475.81,525.8165,-1316.514,-2166.85,-227.5573,103.2545,0,0
58.82077,-16443.79,594.6629,-1332.676,-2178.18,-175.9546,125.8003,0,0
58.85394,-16479.23,581.6321,-1346.015,-2169.107,-138.0227,126.5678,0,0
58.9037,-16533,577.968,-1339.443,-2175.453,-99.02132,117.298,0,0
58.93687,-16534.2,561.5627,-1308.788,-2175.865,-89.48056,120.5759,0,0
58.95346,-16466.35,559.8293,-1267.529,-2176.166,-85.62048,104.0896,0,0
58.98663,-16524.15,539.4374,-1258.133,-2171.949,-100.5139,103.2445,0,0
59.0364,-16483.05,542.4855,-1274.261,-2173.147,-117.5387,81.4124,0,0
59.0364,-16467.13,540.2199,-1283.304,-2165.195,-152.7675,68.75727,1,0
59.08616,-16502.64,489.5881,-1243.697,-2163.55,-166.9535,46.80856,1,0
59.11933,-16515.42,481.8134,-1206.812,-2157.874,-181.0592,38.55593,1,0
59.16909,-16565.05,505.7661,-1179.849,-2153.556,-157.4091,36.91898,1,0
59.16909,-16518.7,505.2124,-1194.88,-2150.286,-131.222,43.9379,1,0
59.21885,-16557.39,475.9287,-1146.747,-2161.119,-105.6499,71.12513,1,0
59.26861,-16531.49,493.4032,-1143.408,-2160.566,-81.71605,103.7086,1,0
59.26861,-16534.87,516.7272,-1131.156,-2164.588,-56.04276,120.1216,1,0
59.30178,-16529.64,548.9073,-1151.974,-2163.241,-71.46484,137.4048,1,0
59.33496,-16549.95,506.9268,-1089.484,-2157.786,-64.02412,133.4338,1,0
59.33496,-16560.98,491.3555,-1061.935,-2158.06,-69.82906,139.2332,1,0
59.40131,-16478.47,528.1713,-1064.509,-2162.72,-49.47353,132.5607,1,0
59.43448,-16502.9,513.0647,-1145.51,-2161.863,-45.13211,130.481,1,0
59.43448,-16464.02,495.9077,-1254.223,-2165.645,-40.31388,130.8159,1,0
59.48425,-16435.47,501.5961,-1238.765,-2164.109,-44.82596,136.5999,1,0
59.534,-16501.31,514.7937,-1203.602,-2162.934,-35.6907,128.8183,1,0
59.58376,-16531.79,510.447,-1135.715,-2162.04,-34.67482,110.1155,1,0
59.60035,-16488.6,540.3154,-1152.602,-2161.362,-29.89902,91.68056,1,0
59.61694,-16520.93,545.3542,-1128.002,-2156.419,-11.99969,64.90681,1,0
59.6667,-16536.79,522.5128,-1098.272,-2161.516,-24.79726,76.11933,1,0
59.69982,-16592.06,511.6182,-1176.565,-2156.563,-42.22548,58.22351,1,0
59.71646,-16526.73,491.0672,-1180.061,-2166.081,-35.4544,29.43118,1,0
59.73305,-16527.63,459.8492,-1126.275,-2160.069,-24.84286,8.972949,1,0
59.79939,-16544.91,443.8,-1153.936,-2164.337,2.260962,-35.53127,1,0
59.79939,-16549.2,369.6062,-1206.22,-2154.309,0.6700002,-240.7081,1,0
59.84916,-16621.09,349.6551,-1147.617,-2151.084,46.08273,-277.9204,1,0
59.88233,-16672.57,338.0338,-1121.676,-2148.643,65.35069,-273.442,1,0
59.93209,-16577.59,361.6025,-1023.314,-2155.668,74.53933,-292.4892,1,1
59.93209,-16591.17,333.3871,-943.9473,-2152.199,36.12431,-280.805,1,1
59.98185,-16556.01,303.2383,-928.0361,-2153.996,26.7283,-315.4534,1,1
60.03161,-16484.73,313.7596,-908.653,-2164.25,30.99994,-319.3447,1,1
60.06479,-16525.56,295.5547,-917.645,-2163.23,63.18387,-368.6794,1,1
60.08137,-16461.57,249.8403,-871.8722,-2162.442,149.3532,-463.2574,1,1
60.11419,-16431.58,266.2363,-840.7442,-2161.835,235.4016,-573.4653,1,1
60.16431,-16464.24,240.3944,-818.6547,-2156.937,291.5428,-674.3857,1,1
60.16431,-16501.59,218.809,-725.9566,-2153.195,424.6641,-825.3502,1,1
60.19748,-16495.89,158.4143,-500.7233,-2159.211,525.8887,-970.0384,1,1
60.24724,-16463.89,188.0651,-353.9612,-2154.957,466.5214,-861.2434,1,1
60.297,-16432.87,163.595,-309.6556,-2160.574,367.4809,-746.7716,1,1
60.297,-16492.41,229.5461,-346.0321,-2156.011,335.8387,-636.342,1,1
60.33017,-16531.39,206.1319,-285.5938,-2161.39,306.3414,-621.0064,1,1
60.37994,-16498.05,180.7978,-228.6346,-2156.641,253.3852,-614.0378,1,1
60.37994,-16574.47,148.4953,-256.3685,-2166.306,202.5585,-551.7748,1,1
60.4297,-16534.24,159.6556,-185.9516,-2155.966,218.8607,-603.5609,1,1
60.46287,-16469.04,91.04784,-101.3994,-2156.921,251.3612,-687.4665,1,1
60.51263,-16476.84,67.85235,10.47543,-2162.09,233.0537,-667.5721,1,1
60.51263,-16520.57,-12.49369,35.63786,-2152.748,204.15,-628.6647,1,1
60.56239,-16476.48,51.88702,85.28474,-2154.475,228.9732,-608.2869,1,1
60.59557,-16493.76,19.7317,108.2386,-2160.239,234.7845,-640.3958,1,1
60.61216,-16494.85,32.24145,199.422,-2155.788,235.1741,-599.0939,1,1
60.66191,-16512.33,-7.519444,228.6239,-2152.388,240.284,-550.7294,1,1
60.69509,-16489.15,-20.76946,274.6529,-2167.525,247.8979,-558.8546,1,1
60.69509,-16433.78,-15.93652,311.4017,-2174.662,231.1104,-491.1397,1,1
60.74485,-16491.26,-20.56508,368.7539,-2166.797,227.5385,-473.8183,1,1
60.79462,-16466.61,-26.91794,462.8945,-2174.052,208.0683,-448.8782,1,1
60.79462,-16529.8,-40.1437,498.674,-2175.144,188.1095,-370.8076,1,1
60.84438,-16523.84,-58.62849,489.7909,-2171.515,196.9075,-317.3233,1,1
60.86096,-16550.24,-65.61503,464.5637,-2159.851,205.5484,-315.1837,1,1
60.92731,-16532.68,-71.56442,514.4992,-2150.926,215.4351,-314.9577,1,1
60.92731,-16494.79,-63.44017,530.0117,-2148.551,193.8518,-257.7436,1,1
60.96048,-16491.29,-73.38954,551.3495,-2146.763,182.0155,-237.8837,1,1
61.01025,-16455.42,-123.7664,613.7448,-2154.29,167.9784,-228.9254,1,1
61.06001,-16489,-154.0445,665.4207,-2155.636,119.3315,-200.3393,1,1
61.06001,-16538.01,-169.9991,647.9279,-2161.108,89.71726,-145.6904,1,1
61.10976,-16597.61,-133.992,655.1541,-2160.863,114.8958,-125.7481,1,1
61.14294,-16485.71,-124.7846,735.6583,-2160.672,135.7061,-146.2434,1,1
61.14294,-16466.55,-166.0565,817.8791,-2156.093,118.4951,-127.5511,1,1
61.1927,-16475.25,-207.1323,820.4371,-2152.595,83.83929,-90.77797,1,1
61.24246,-16530.72,-221.4007,797.5352,-2145.502,68.85863,-64.31321,1,1
61.27563,-16507.78,-211.8171,809.5645,-2153.398,62.5977,-69.31271,1,1
61.27563,-16452.54,-211.7196,830.668,-2141.73,66.33922,-98.63509,1,1
61.32539,-16473.51,-253.2564,883.1192,-2146.129,68.30169,-92.1976,1,1
61.37516,-16536.17,-250.1622,854.2835,-2149.524,63.34682,-99.357,1,1
61.37516,-16474.39,-247.2746,874.1351,-2156.571,45.34196,-87.52818,1,1
61.42492,-16460.38,-255.659,902.487,-2148.672,35.37877,-64.48863,1,1
61.45809,-16543.92,-213.9675,875.3128,-2155.936,59.00252,-58.37597,1,1
61.50785,-16526.91,-232.6534,933.1542,-2157.067,81.68715,-55.52028,1,1
61.50785,-16557.03,-236.6157,910.8937,-2153.498,116.8833,-75.91208,1,1
61.54102,-16470.29,-238.1783,976.9725,-2141.909,114.2115,-66.67372,1,1
61.55761,-16499.24,-256.7526,945.5318,-2150.792,100.8289,-71.58466,1,1
61.60737,-16419.49,-246.2313,920.4303,-2153.174,110.5713,-104.7463,1,1
61.64055,-16494.89,-273.2989,988.9241,-2155.001,142.1488,-178.8292,1,1
61.64055,-16472.87,-310.2692,1086.875,-2156.399,147.4416,-201.8024,1,1
61.6903,-16468.26,-287.1788,1055.435,-2153.034,129.2753,-185.0306,1,1
61.74007,-16406.08,-286.8634,1063.54,-2154.893,110.0872,-158.6386,1,1
61.74007,-16416.29,-347.212,1068.728,-2151.885,118.4122,-196.9492,1,1
61.78983,-16469.71,-317.6263,1061.757,-2158.45,97.10023,-215.469,1,1
61.82301,-16443.07,-273.5566,1104.261,-2154.606,122.3834,-224.8848,1,1
61.85618,-16439.4,-307.1465,1179.058,-2156.094,115.9818,-210.6932,1,1
61.87269,-16399.02,-297.1075,1204.233,-2152.799,95.85885,-157.1384,1,1
61.92235,-16435.88,-291.3687,1221.325,-2150.28,114.851,-152.2268,1,1
61.9557,-16435.39,-281.1964,1351.889,-2148.363,131.6187,-158.5343,1,1
61.9557,-16488.28,-306.44,1361.928,-2146.909,87.65212,-67.06233,1,1
62.00546,-16468.92,-318.8717,1297.456,-2154.675,81.48093,-40.51758,1,1
62.03863,-16395.39,-312.6153,1381.097,-2151.757,72.13359,-36.31598,1,1
62.08839,-16386.91,-295.4027,1397.435,-2149.528,52.3401,-18.74898,1,1
62.08839,-16366.21,-295.3345,1372.237,-2143.399,64.19334,-26.1444,1,1
62.13816,-16372.75,-410.3222,1346.377,-2138.73,71.43919,-39.8765,1,1
62.18792,-16324.78,-306.2818,1310.158,-2139.62,88.70454,-25.73016,1,1
62.18792,-16342.64,-296.2462,1379.141,-2140.331,98.91758,-152.5498,1,1
62.23768,-16398.66,-287.3231,1351.307,-2145.333,126.4143,-204.7554,1,1
62.27085,-16372.97,-314.7301,1389.039,-2144.745,123.3206,-132.1311,1,1
62.32062,-16372.29,-289.0256,1520.133,-2144.308,85.45932,-95.65818,1,1
62.32062,-16361.94,-254.8504,1516.396,-2152.85,47.65628,-31.28418,1,1
62.37037,-16390.74,-247.5097,1553.505,-2154.952,16.90864,3.901663,1,1
62.40355,-16440.57,-385.9157,1493.352,-2156.549,81.08404,-47.30677,1,1
62.40355,-16484.24,-281.0923,1543.931,-2153.327,74.04011,6.351943,1,1
62.45331,-16488.73,-282.7564,1568.443,-2159.715,74.51556,54.05804,1,1
62.50307,-16475.41,-147.7187,1496.551,-2151.292,49.44897,56.67493,1,1
62.53624,-16438.52,-145.4031,1502.835,-2153.704,115.6624,12.04354,1,1
62.55283,-16437.96,-173.803,1540.198,-2146.683,96.7894,29.95647,1,1
62.586,-16404.29,-178.004,1597.985,-2145.75,76.2361,7.383564,1,1
62.63577,-16371.94,-195.7822,1623.678,-2145.048,49.18344,-10.39295,1,1
62.63577,-16390.52,-225.0132,1650.262,-2140.093,37.98765,-16.688,1,1
62.68553,-16340.59,-184.2839,1626.553,-2145.187,44.77028,-17.76818,1,1
62.7187,-16318.07,-215.263,1637.554,-2153.529,46.18631,-18.99942,1,1
62.76846,-16430.69,-180.3176,1596.494,-2146.614,44.03814,14.83653,1,1
62.76846,-16420.52,-196.8924,1612.088,-2150.189,69.9025,18.12048,1,1
62.8514,-16357.33,-174.2154,1667.737,-2152.926,100.2554,11.03046,1,1
62.86798,-16347.86,-214.5884,1694.134,-2155.013,90.21339,15.41104,1,1
62.90116,-16408.35,-226.6968,1668.199,-2161.031,105.2119,-6.876606,1,1
62.90116,-16402.61,-251.4747,1711.97,-2152.32,89.77516,-48.13726,1,1
62.95092,-16394.9,-260.4155,1718.203,-2150.077,94.00159,-39.56915,1,1
63.00068,-16440,-276.0446,1736.707,-2148.361,80.87159,-2.838134,1,1
63.00068,-16415.75,-263.5281,1715.857,-2151.485,71.37853,9.95076,1,1
63.05045,-16349.53,-232.8201,1688.225,-2145.012,75.21661,-10.57271,1,1
63.08362,-16275.71,-222.6019,1735.26,-2144.501,32.47649,13.79824,1,1
63.08362,-16295.94,-221.4502,1756.298,-2139.692,45.2892,-3.670851,1,1
63.13338,-16260.72,-229.4575,1777.352,-2140.467,37.4565,5.308588,1,1
63.18314,-16255.12,-201.2529,1838.283,-2136.649,25.46173,36.46121,1,1
63.18314,-16380.75,-195.239,1762.358,-2142.619,24.42776,33.28699,1,1
