Time,Ax,Ay,Az,Gx,Gy,Gz,Breathing,Ground Truth
9.178015,0,0,0,0,0,0,0,0
9.178015,-16548,-160,-516,-2656,75,368,0,0
9.2775,-16420,-336,-376,-2672,115,274,0,0
9.2775,-16388,-344,-372,-2640,-6,253,0,0
9.29408,-16476,-536,-528,-2624,-74,245,0,0
9.29408,-16528,-348,-348,-2592,-129,362,0,0
9.29408,-16376,-520,-380,-2608,-243,316,0,0
9.29408,-16552,-588,-340,-2640,-239,783,0,0
9.327241,-16696,-92,-668,-2656,-66,454,0,0
9.343821,-16456,-284,-704,-2624,131,523,0,0
9.376983,-16488,-324,-544,-2624,114,397,0,0
9.376983,-16424,-416,-624,-2608,-70,606,0,0
9.426723,-16552,-536,-756,-2640,-43,186,0,0
9.426723,-16592,-532,-916,-2624,-267,218,0,0
9.476464,-16452,-536,-748,-2608,-283,-1,0,0
9.476464,-16464,-472,-616,-2608,-334,89,0,0
9.526204,-16396,-464,-660,-2624,-223,200,0,0
9.559365,-16380,-484,-816,-2656,-37,92,0,0
9.559365,-16612,-484,-696,-2624,-38,185,0,0
9.642265,-16568,-532,-748,-2592,60,181,0,0
9.658848,-16536,-580,-664,-2624,83,65,0,0
9.692008,-16520,-572,-628,-2608,81,24,0,0
9.692008,-16468,-704,-740,-2608,2,54,0,0
9.741747,-16432,-608,-652,-2624,-178,138,0,0
9.741747,-16520,-468,-744,-2640,-288,92,0,0
9.791491,-16324,-484,-720,-2624,-253,-110,0,0
9.791491,-16580,-588,-552,-2640,-275,-169,0,0
9.824651,-16516,-616,-692,-2576,-292,53,0,0
9.87439,-16472,-432,-644,-2656,-172,100,0,0
9.957292,-16436,-524,-608,-2576,-14,9,0,0
9.97387,-16552,-628,-492,-2624,-7,92,0,0
10.00703,-16496,-440,-624,-2640,23,132,0,0
10.00703,-16460,-464,-568,-2608,-75,172,0,0
10.05677,-16520,-408,-668,-2624,-107,172,0,0
10.08993,-16384,-512,-580,-2640,-201,186,0,0
10.10651,-16432,-428,-612,-2656,-295,171,0,0
10.13967,-16472,-492,-524,-2640,-537,367,0,0
10.15626,-16524,-384,-696,-2592,-567,90,0,0
10.18942,-16460,-524,-704,-2640,-296,-35,0,0
10.18942,-16600,-344,-676,-2640,-84,212,0,0
10.2889,-16492,-420,-340,-2592,-40,60,0,0
10.2889,-16544,-388,-576,-2640,-79,153,0,0
10.32206,-16604,-552,-536,-2592,-75,145,0,0
10.3718,-16612,-492,-688,-2624,-121,437,0,0
10.3718,-16336,-428,-668,-2640,10,54,0,0
10.42154,-16488,-476,-584,-2576,-10,159,0,0
10.42154,-16536,-412,-556,-2624,9,201,0,0
10.4547,-16424,-444,-760,-2592,-7,274,0,0
10.47128,-16544,-520,-676,-2624,108,35,0,0
10.50444,-16488,-544,-576,-2640,-47,156,0,0
10.50444,-16360,-460,-584,-2656,-60,69,0,0
10.55418,-16484,-476,-692,-2608,-117,98,0,0
10.60393,-16592,-568,-580,-2624,-117,102,0,0
10.60393,-16524,-536,-736,-2592,-139,148,0,0
10.63708,-16500,-472,-516,-2624,-41,46,0,0
10.63708,-16468,-500,-516,-2624,-91,149,0,0
10.68682,-16544,-488,-616,-2608,-58,112,0,0
10.68682,-16552,-576,-528,-2624,8,80,0,0
10.73657,-16344,-656,-464,-2608,-92,210,0,0
10.73657,-16560,-412,-612,-2608,-145,86,0,0
10.76973,-16532,-612,-404,-2608,-56,118,0,0
10.81947,-16392,-492,-556,-2624,-75,94,0,0
10.81947,-16496,-492,-552,-2608,-79,107,0,0
10.86921,-16580,-576,-556,-2608,-131,139,0,0
10.90237,-16616,-420,-872,-2592,-107,119,0,0
10.91895,-16488,-552,-688,-2592,-72,110,0,0
10.95211,-16484,-508,-404,-2592,-105,101,0,0
10.95211,-16480,-428,-736,-2576,-74,178,0,0
11.00185,-16472,-476,-484,-2592,-115,236,0,0
11.00185,-16596,-492,-704,-2624,-86,138,0,0
11.05159,-16480,-524,-608,-2624,-112,146,0,0
11.08475,-16640,-344,-628,-2624,-62,143,0,0
11.08475,-16456,-416,-600,-2640,-62,214,0,0
11.13449,-16532,-372,-668,-2592,-85,118,0,0
11.13449,-16468,-344,-420,-2576,-116,171,0,0
11.18423,-16516,-464,-544,-2608,-140,150,0,0
11.18423,-16492,-476,-572,-2560,-148,129,0,0
11.21739,-16400,-360,-744,-2608,-176,121,0,0
11.23397,-16524,-420,-604,-2592,-120,52,0,0
11.26713,-16504,-420,-856,-2608,-125,292,0,0
11.31688,-16556,-416,-520,-2576,179,-26,0,0
11.31688,-16336,-480,-256,-2592,53,252,0,0
11.36662,-16428,-412,-400,-2576,104,142,0,0
11.36662,-16464,-576,-488,-2592,75,160,0,0
11.39978,-16508,-568,-480,-2592,33,84,0,0
11.44952,-16444,-616,-804,-2592,-132,216,0,0
11.44952,-16488,-316,-520,-2624,-141,115,0,0
11.53242,-16580,-340,-496,-2592,-136,153,0,0
11.549,-16548,-288,-464,-2576,-210,163,0,0
11.58216,-16520,-416,-488,-2576,-89,88,0,0
11.58216,-16592,-404,-532,-2560,-121,108,0,0
11.6319,-16500,-496,-544,-2608,-75,114,0,0
11.68164,-16544,-568,-612,-2592,-93,134,0,0
11.68164,-16528,-556,-476,-2608,-51,119,0,0
11.7148,-16448,-516,-484,-2592,-145,207,0,0
11.76445,-16420,-500,-656,-2592,-153,209,0,0
11.76445,-16544,-580,-552,-2576,-141,125,0,0
11.81465,-16388,-432,-516,-2592,-170,239,0,0
11.84782,-16464,-336,-524,-2624,-159,325,0,0
11.86443,-16504,-392,-716,-2608,-120,453,0,0
11.89761,-16404,-544,-588,-2592,-51,223,0,0
11.94738,-16488,-404,-332,-2576,-147,359,0,0
11.94738,-16800,-384,-476,-2608,-309,291,0,0
11.99715,-16708,-212,-688,-2576,-136,584,0,0
12.03033,-16656,-444,-612,-2608,-432,1059,0,0
12.0801,-16508,-416,-608,-2560,-934,990,0,0
12.0801,-16192,-584,-832,-2592,-233,669,0,0
12.12987,-16280,-600,-900,-2560,-114,300,0,0
12.16305,-16496,-772,-880,-2608,41,-99,0,0
12.21282,-16428,-628,-596,-2592,-127,113,0,0
12.26259,-16660,-372,-588,-2608,-302,365,0,0
12.29577,-16504,-556,-848,-2576,-354,354,0,0
12.31236,-16524,-548,-776,-2560,-546,543,0,0
12.34554,-16548,-464,-868,-2544,-500,509,0,0
12.34554,-16564,-388,-1004,-2560,-337,307,0,0
12.39531,-16480,-372,-1004,-2592,-380,583,0,0
12.42848,-16448,-364,-744,-2576,-299,365,0,0
12.49483,-16524,-380,-1168,-2576,-208,381,0,0
12.49483,-16368,-524,-636,-2592,-228,253,0,0
12.59438,-16472,-424,-1052,-2576,-369,410,0,0
12.64414,-16496,-492,-1004,-2592,-362,354,0,0
12.64414,-16568,-328,-992,-2576,-364,444,0,0
12.67732,-16304,-380,-1080,-2576,-291,378,0,0
12.69391,-16440,-440,-1052,-2560,-63,189,0,0
12.72709,-16512,-560,-1172,-2592,-87,183,0,0
12.77686,-16508,-464,-1020,-2576,-127,175,0,0
12.77686,-16376,-436,-932,-2592,-253,364,0,0
12.81004,-16504,-484,-1236,-2560,-144,68,0,0
12.90958,-16452,-348,-936,-2560,-162,251,0,0
12.90958,-16412,-444,-1312,-2608,-19,162,0,0
12.95936,-16492,-200,-1120,-2560,77,174,0,0
12.95936,-16520,-400,-1104,-2592,204,166,0,0
12.99253,-16396,-536,-1100,-2592,140,159,0,0
13.0423,-16528,-536,-900,-2560,-66,89,0,0
13.0423,-16440,-540,-944,-2576,-283,307,0,0
13.09207,-16404,-408,-1060,-2576,-347,241,0,0
13.09207,-16372,-496,-1064,-2576,-189,144,0,0
13.12526,-16440,-392,-1184,-2576,-110,176,0,0
13.22479,-16528,-588,-984,-2544,48,203,0,0
13.2741,-16500,-632,-1096,-2576,48,256,0,0
13.2741,-16460,-516,-1176,-2576,15,236,0,0
13.30728,-16532,-408,-976,-2560,-12,275,0,0
13.30728,-16428,-444,-1032,-2544,-129,231,0,0
13.35706,-16412,-424,-1060,-2560,-199,234,0,0
13.35706,-16444,-424,-1160,-2592,-44,162,0,0
13.40683,-16316,-504,-1036,-2560,-31,227,0,0
13.44001,-16548,-424,-1396,-2560,138,87,0,0
13.4566,-16348,-700,-972,-2560,27,157,0,0
13.48979,-16556,-516,-1024,-2560,-98,140,0,0
13.53956,-16352,-476,-1276,-2544,-198,141,0,0
13.53956,-16512,-440,-1092,-2544,-243,50,0,0
13.58934,-16456,-552,-980,-2576,-235,78,0,0
13.62252,-16540,-400,-1128,-2544,-212,113,0,0
13.62252,-16440,-272,-1064,-2592,-138,131,0,0
13.67229,-16440,-372,-1196,-2592,-227,109,0,0
13.72206,-16420,-372,-1184,-2544,-97,-121,0,0
13.75525,-16564,-408,-996,-2576,-179,74,0,0
13.77184,-16640,-352,-1160,-2560,-164,25,0,0
13.80502,-16552,-400,-848,-2592,-154,48,0,0
13.85479,-16460,-396,-868,-2560,-142,60,0,0
13.90457,-16516,-528,-776,-2528,-180,192,0,0
13.90457,-16480,-372,-956,-2576,-215,289,0,0
13.93775,-16456,-460,-1000,-2592,-98,218,0,0
13.98752,-16436,-344,-1064,-2560,-119,329,0,0
13.98752,-16476,-356,-1076,-2528,-13,300,0,0
14.0373,-16660,-440,-1080,-2560,91,152,0,0
14.07048,-16640,-424,-908,-2576,40,234,0,0
14.12026,-16456,-336,-1000,-2576,-41,289,0,0
14.12026,-16448,-280,-1116,-2560,-60,256,0,0
14.17003,-16416,-360,-1052,-2592,-37,237,0,0
14.20321,-16512,-284,-1172,-2544,-110,280,0,0
14.2198,-16356,-368,-1044,-2560,24,78,0,0
14.25298,-16508,-396,-1140,-2544,-6,205,0,0
14.30276,-16352,-340,-1112,-2544,-66,243,0,0
14.33593,-16512,-368,-1020,-2544,-76,147,0,0
14.38571,-16536,-452,-960,-2528,-80,92,0,0
14.38571,-16468,-392,-1192,-2544,-264,169,0,0
14.46866,-16584,-384,-1252,-2544,-146,78,0,0
14.50184,-16432,-484,-996,-2560,-77,91,0,0
14.50184,-16444,-368,-1300,-2544,-17,73,0,0
14.55162,-16504,-320,-1024,-2544,58,90,0,0
14.56821,-16448,-416,-1004,-2608,-3,82,0,0
14.60139,-16452,-436,-992,-2560,2,70,0,0
14.60139,-16428,-496,-892,-2576,-83,133,0,0
14.65116,-16452,-404,-924,-2576,-32,64,0,0
14.6675,-16468,-312,-1088,-2576,-144,148,0,0
14.6675,-16460,-356,-1088,-2544,-108,11,0,0
14.75071,-16560,-408,-976,-2544,-132,150,0,0
14.7673,-16400,-128,-1168,-2528,-63,-185,0,0
14.81707,-16600,-428,-1016,-2560,-13,-18,0,0
14.86685,-16460,-476,-992,-2528,-14,-93,0,0
14.88343,-16584,-368,-1156,-2560,41,-98,0,0
14.91661,-16484,-560,-1172,-2560,78,-257,0,0
14.91661,-16488,-512,-856,-2560,101,-448,0,0
14.98298,-16400,-620,-696,-2560,205,-448,0,0
15.01617,-16380,-520,-692,-2544,-17,-510,0,0
15.06594,-16448,-440,-820,-2544,116,-511,0,0
15.14889,-16432,-432,-792,-2560,113,-531,0,0
15.19867,-16496,-588,-588,-2560,173,-711,0,0
15.24843,-16772,-568,-584,-2544,274,-883,0,0
15.24843,-16524,-628,-380,-2560,20,-516,0,0
15.29821,-16468,-712,-544,-2560,-22,-426,0,0
15.29821,-16412,-772,-444,-2528,132,-585,0,0
15.33139,-16516,-728,-256,-2576,162,-430,0,0
15.34798,-16472,-648,-324,-2544,226,-368,0,0
15.38117,-16464,-700,-136,-2560,304,-510,0,0
15.43094,-16524,-716,-72,-2544,333,-441,0,0
15.43094,-16448,-704,-60,-2544,231,-287,0,0
15.5139,-16396,-832,-224,-2544,292,-239,0,0
15.5139,-16576,-756,-84,-2560,270,-354,0,0
15.56367,-16540,-804,44,-2528,286,-245,0,0
15.61345,-16456,-816,-120,-2544,237,-321,0,0
15.61345,-16520,-756,108,-2512,225,-333,0,0
15.64663,-16452,-792,0,-2544,158,-200,0,0
15.66322,-16508,-836,-164,-2528,200,-255,0,0
15.6964,-16424,-880,76,-2576,206,-477,0,0
15.74617,-16460,-1032,12,-2528,128,-296,0,0
15.74617,-16408,-1012,264,-2560,77,-177,0,0
15.77936,-16588,-856,124,-2560,105,-235,0,0
15.82913,-16612,-820,268,-2512,235,-179,0,0
15.82913,-16348,-992,292,-2544,302,-279,0,0
15.8789,-16212,-1000,424,-2560,299,-279,0,0
15.92868,-16372,-960,212,-2528,249,-21,0,0
15.92868,-16380,-976,308,-2560,160,-80,0,0
15.96186,-16404,-1008,308,-2544,85,-138,0,0
16.01163,-16392,-996,392,-2544,11,-16,0,0
16.01163,-16316,-1112,552,-2528,-95,41,0,0
16.06141,-16408,-996,504,-2544,-152,181,0,0
16.09459,-16544,-1032,516,-2512,-137,197,0,0
16.14437,-16280,-976,432,-2544,-122,384,0,0
16.16096,-16276,-1048,512,-2544,-96,310,0,0
16.24341,-16348,-948,308,-2544,-264,547,0,0
16.27656,-16404,-984,304,-2528,-191,458,0,0
16.27656,-16252,-1044,788,-2576,-274,775,0,0
16.32632,-16148,-1172,560,-2544,-611,1034,0,0
16.32632,-16552,-736,-280,-2544,-772,1228,0,0
16.37608,-17068,-292,-760,-2544,-273,530,0,0
16.37608,-16696,-768,-20,-2544,65,22,0,0
16.42584,-16388,-1104,112,-2560,-108,124,0,0
16.45901,-16288,-856,280,-2560,-302,410,0,0
16.45901,-16424,-856,128,-2496,-297,306,0,0
16.50877,-16512,-736,92,-2544,-254,281,0,0
16.55853,-16520,-812,196,-2528,-134,224,0,0
16.55853,-16448,-808,352,-2528,-222,402,0,0
16.5917,-16348,-868,-44,-2544,-179,391,0,0
16.64146,-16408,-784,64,-2512,-84,313,0,0
16.64146,-16484,-916,104,-2544,-145,324,0,0
16.69122,-16368,-784,-8,-2544,-257,296,0,0
16.72439,-16488,-820,176,-2496,-268,299,0,0
16.77415,-16584,-580,136,-2512,-305,384,0,0
16.77415,-16520,-684,-332,-2544,-235,417,0,0
16.82391,-16436,-888,-160,-2544,-132,274,0,0
16.87367,-16336,-724,-68,-2512,-232,465,0,0
16.90685,-16444,-820,-76,-2496,-235,411,0,0
16.90685,-16448,-784,108,-2528,-446,479,0,0
16.9566,-16488,-688,-84,-2528,-440,496,0,0
17.00636,-16496,-608,-116,-2512,-392,437,0,0
17.00636,-16452,-736,-272,-2544,-387,547,0,0
17.03954,-16504,-736,-200,-2512,-197,334,0,0
17.0893,-16472,-664,-20,-2512,-201,384,0,0
17.0893,-16592,-632,92,-2512,-419,838,0,0
17.13906,-16588,-404,-628,-2496,-367,562,0,0
17.18882,-16276,-760,-456,-2496,-77,315,0,0
17.22199,-16448,-840,-196,-2528,-195,322,0,0
17.22199,-16444,-648,-220,-2496,-438,528,0,0
17.27175,-16524,-464,-392,-2528,-476,519,0,0
17.32151,-16444,-364,-368,-2528,-358,400,0,0
17.35468,-16500,-688,-256,-2496,-440,511,0,0
17.40444,-16504,-392,-444,-2512,-412,531,0,0
17.42103,-16308,-392,-528,-2512,-468,469,0,0
17.4542,-16416,-480,-356,-2528,-512,483,0,0
17.50396,-16416,-412,-660,-2528,-538,523,0,0
17.50396,-16528,-392,-656,-2528,-446,510,0,0
17.53713,-16508,-508,-448,-2496,-442,517,0,0
17.58689,-16496,-388,-480,-2512,-454,616,0,0
17.63665,-16380,-376,-684,-2528,-368,494,0,0
17.63665,-16588,-440,-788,-2528,-252,416,0,0
17.66982,-16508,-224,-808,-2496,-90,343,0,0
17.76935,-16412,-180,-696,-2528,-140,478,0,0
17.81911,-16432,-324,-1048,-2528,-37,368,0,0
17.81911,-16596,-396,-660,-2512,-51,434,0,0
17.86886,-16472,-336,-768,-2496,28,317,0,0
17.90204,-16484,-348,-704,-2528,-47,383,0,0
17.90204,-16340,-468,-692,-2544,-21,193,0,0
17.9518,-16616,-304,-772,-2496,-9,246,0,0
17.9518,-16412,-384,-644,-2512,-124,199,0,0
18.08449,-16632,-328,-864,-2496,-45,196,0,0
18.13425,-16412,-272,-932,-2512,-93,252,0,0
18.16742,-16516,-472,-748,-2544,12,1,0,0
18.16742,-16508,-260,-584,-2512,-92,202,0,0
18.21718,-16504,-320,-752,-2528,-103,214,0,0
18.21718,-16488,-464,-764,-2544,-18,42,0,0
18.26694,-16500,-376,-716,-2496,-19,237,0,0
18.26694,-16348,-348,-668,-2496,-60,129,0,0
18.30011,-16572,-316,-684,-2528,-42,137,0,0
18.34987,-16428,-380,-768,-2496,-110,197,0,0
18.34987,-16540,-336,-704,-2544,-94,74,0,0
18.44939,-16692,-232,-664,-2528,-110,107,0,0
18.44939,-16412,-456,-580,-2496,-400,410,0,0
18.48256,-16632,-132,-1040,-2512,-230,181,0,0
18.48256,-16380,-344,-960,-2480,-76,120,0,0
18.53232,-16496,-372,-592,-2528,-81,148,0,0
18.58208,-16520,-228,-704,-2480,-13,204,0,0
18.58208,-16508,-320,-780,-2512,42,126,0,0
18.665,-16496,-476,-728,-2464,2,135,0,0
18.665,-16484,-212,-884,-2512,-129,231,0,0
18.71476,-16388,-212,-844,-2528,-98,92,0,0
18.74794,-16424,-268,-664,-2496,-123,124,0,0
18.76452,-16488,-264,-740,-2512,-94,155,0,0
18.7977,-16444,-252,-836,-2528,-74,157,0,0
18.7977,-16524,-192,-832,-2480,-16,106,0,0
18.84745,-16496,-372,-672,-2544,-15,127,0,0
18.84745,-16536,-368,-568,-2496,-61,128,0,0
18.93039,-16476,-352,-812,-2512,-152,149,0,0
18.94697,-16512,-224,-764,-2544,-121,71,0,0
18.98014,-16540,-388,-560,-2512,-140,206,0,0
18.99673,-16508,-252,-660,-2512,-56,116,0,0
19.01331,-16452,-284,-724,-2496,-78,257,0,0
19.04648,-16524,-236,-748,-2496,-7,124,0,0
19.04648,-16460,-316,-668,-2480,-33,187,0,0
19.07965,-16452,-280,-672,-2496,-14,206,0,0
19.11283,-16520,-264,-820,-2496,-88,207,0,0
19.14601,-16528,-384,-756,-2512,-6,146,0,0
19.14601,-16532,-360,-672,-2480,27,98,0,0
19.17917,-16568,-272,-532,-2512,-116,191,0,0
19.22893,-16528,-272,-684,-2496,-129,219,0,0
19.22893,-16408,-208,-828,-2512,-121,235,0,0
19.27869,-16460,-304,-828,-2480,-114,182,0,0
19.32845,-16504,-296,-688,-2496,-100,184,0,0
19.32845,-16432,-316,-672,-2496,-124,215,0,0
19.36162,-16428,-260,-860,-2496,-22,106,0,0
19.41138,-16456,-324,-744,-2496,-23,214,0,0
19.44455,-16560,-348,-692,-2464,101,63,0,0
19.46114,-16496,-264,-720,-2464,-64,356,0,0
19.49431,-16420,-252,-800,-2496,-18,141,0,0
19.52743,-16480,-324,-840,-2528,-25,134,0,0
19.52743,-16376,-336,-768,-2496,-56,166,0,0
19.52743,-16444,-344,-648,-2480,-54,146,0,0
19.52743,-16600,-388,-628,-2464,-56,133,0,0
19.52743,-16608,-260,-780,-2496,-101,207,0,0
19.52743,-16560,-340,-812,-2464,-44,66,0,0
19.52743,-16648,-296,-796,-2464,-86,146,0,0
19.52743,-16492,-352,-772,-2480,-107,155,0,0
19.52743,-16576,-460,-700,-2480,-106,145,0,0
19.52743,-16432,-344,-556,-2496,-113,198,0,0
19.52743,-16500,-260,-668,-2480,-127,267,0,0
19.52743,-16496,-344,-556,-2496,-51,129,0,0
19.86077,-16536,-276,-692,-2448,-31,170,1,0
19.86077,-16404,-392,-736,-2496,-24,226,1,0
19.86077,-16584,-352,-552,-2480,5,158,1,0
19.86077,-16460,-392,-696,-2448,-102,248,1,0
19.92711,-16480,-340,-836,-2480,-78,113,1,0
19.97687,-16556,-408,-740,-2496,-85,183,1,0
20.02663,-16436,-320,-840,-2480,-46,172,1,0
20.02663,-16408,-196,-764,-2528,-77,205,1,0
20.05927,-16372,-196,-720,-2464,-130,275,1,0
20.10903,-16584,-364,-644,-2480,-14,158,1,0
20.15877,-16548,-372,-808,-2480,-119,263,1,0
20.15877,-16652,-272,-708,-2512,-98,158,1,0
20.24168,-16416,-328,-796,-2464,-85,211,1,0
20.24168,-16588,-380,-652,-2464,-50,147,1,0
20.29143,-16396,-400,-748,-2480,-99,179,1,0
20.34118,-16476,-376,-688,-2480,-49,128,1,0
20.34118,-16464,-360,-808,-2480,-88,180,1,0
20.37434,-16444,-296,-772,-2464,-48,132,1,0
20.42409,-16368,-416,-752,-2464,-60,168,1,0
20.42409,-16480,-404,-808,-2464,-130,129,1,0
20.47383,-16560,-284,-848,-2464,-72,132,1,0
20.507,-16572,-400,-616,-2464,-74,46,1,0
20.52358,-16456,-208,-708,-2480,-140,141,1,0
20.55674,-16532,-376,-812,-2496,-3,-121,1,0
20.60649,-16616,-456,-756,-2496,-45,5,1,0
20.63965,-16540,-336,-760,-2464,-106,-22,1,0
20.65611,-16460,-284,-700,-2464,-175,-30,1,0
20.6894,-16628,-488,-596,-2480,-120,-119,1,0
20.73915,-16488,-272,-548,-2464,-122,-13,1,0
20.78889,-16448,-264,-576,-2496,-18,-112,1,0
20.82206,-16560,-348,-412,-2480,-66,38,1,0
20.83864,-16576,-300,-752,-2480,-26,84,1,0
20.87181,-16504,-240,-668,-2464,7,-12,1,0
20.92155,-16512,-560,-436,-2464,83,-167,1,0
20.92155,-16476,-460,-436,-2464,-76,10,1,0
20.97168,-16604,-336,-616,-2432,32,-79,1,0
20.97168,-16560,-332,-556,-2464,63,-139,1,0
21.02146,-16464,-528,-440,-2448,66,-132,1,0
21.05463,-16464,-396,-364,-2432,0,-73,1,0
21.10439,-16372,-436,-532,-2448,-84,-53,1,0
21.13755,-16560,-488,-412,-2448,48,-240,1,0
21.15414,-16516,-512,-320,-2448,-51,-62,1,0
21.18731,-16596,-524,-412,-2464,-3,-117,1,0
21.23706,-16448,-416,-636,-2448,66,-140,1,0
21.28682,-16500,-544,-268,-2432,87,-130,1,0
21.28682,-16580,-656,-180,-2448,57,9,1,0
21.31999,-16572,-576,-216,-2464,46,9,1,0
21.36974,-16380,-544,-288,-2448,89,-17,1,0
21.36974,-16384,-652,-220,-2464,57,-64,1,0
21.4195,-16460,-504,-352,-2480,-19,75,1,0
21.45267,-16540,-376,-440,-2496,131,-185,1,0
21.50243,-16392,-644,-284,-2480,185,-117,1,0
21.50243,-16392,-604,-144,-2464,51,-127,1,0
21.55218,-16512,-600,-272,-2432,61,-167,1,0
21.58535,-16516,-800,8,-2480,-56,-179,1,0
21.63511,-16432,-644,-368,-2480,-132,-181,1,0
21.63511,-16488,-648,-92,-2448,-57,-185,1,0
21.68486,-16500,-596,-8,-2480,-82,-146,1,0
21.73462,-16572,-600,-188,-2432,21,-339,1,0
21.73462,-16440,-816,-16,-2464,12,-222,1,0
21.78438,-16364,-736,104,-2448,17,-133,1,0
21.81755,-16456,-760,-108,-2480,-40,-113,1,0
21.81755,-16488,-568,-8,-2480,126,-161,1,0
21.91706,-16432,-784,136,-2496,105,-175,1,0
21.91706,-16384,-584,144,-2496,107,-90,1,0
21.95023,-16612,-792,-40,-2464,43,-49,1,0
21.96682,-16608,-776,-52,-2480,174,-160,1,0
21.99999,-16500,-716,248,-2448,154,-214,1,0
22.04975,-16488,-736,172,-2464,87,-97,1,0
22.08292,-16496,-756,64,-2464,-2,-133,1,0
22.0995,-16468,-616,72,-2432,25,-165,1,0
22.13268,-16516,-812,144,-2432,-2,-69,1,0
22.18243,-16464,-940,68,-2464,47,-118,1,0
22.18243,-16384,-1120,504,-2464,29,-202,1,0
22.23219,-16476,-1020,368,-2480,-142,-3,1,0
22.26536,-16580,-724,184,-2464,-95,-18,1,0
22.31511,-16432,-728,148,-2432,80,-148,1,0
22.31511,-16436,-848,232,-2448,40,-74,1,0
22.36487,-16504,-828,256,-2448,349,-319,1,0
22.39804,-16348,-988,372,-2480,341,-334,1,0
22.41463,-16324,-844,568,-2432,235,-218,1,0
22.4478,-16524,-860,284,-2432,130,-1,1,0
22.49755,-16444,-884,424,-2464,137,-66,1,0
22.54731,-16396,-960,716,-2416,88,-75,1,0
22.54731,-16572,-1032,584,-2432,99,-56,1,0
22.58048,-16432,-1000,528,-2448,60,-38,1,0
22.63024,-16592,-900,488,-2480,69,-112,1,0
22.63024,-16384,-1096,556,-2464,118,-89,1,0
22.68037,-16348,-1048,568,-2480,-62,137,1,0
22.71354,-16464,-816,496,-2432,18,174,1,0
22.71354,-16456,-1044,652,-2432,138,-27,1,0
22.76333,-16436,-1104,648,-2464,85,93,1,0
22.8131,-16296,-1072,504,-2432,71,137,1,0
22.8131,-16344,-932,692,-2480,-25,145,1,0
22.86274,-16308,-896,472,-2448,7,58,1,0
22.89605,-16264,-1064,700,-2464,68,-43,1,0
22.89605,-16376,-1032,692,-2432,-19,196,1,0
22.94581,-16384,-1104,624,-2464,50,207,1,0
22.99558,-16384,-1044,720,-2432,0,175,1,0
22.99558,-16484,-1036,356,-2448,18,103,1,0
23.02876,-16572,-824,112,-2432,268,-168,1,0
23.07709,-16140,-1500,920,-2464,339,-119,1,0
23.11171,-15568,-1972,1352,-2464,-84,28,1,0
23.1283,-16768,-892,632,-2448,-334,455,1,0
23.17807,-16620,-844,332,-2448,-97,120,1,0
23.21124,-16112,-1224,672,-2448,-11,75,1,0
23.21124,-16332,-1084,792,-2464,-34,87,1,0
23.26101,-16520,-1180,824,-2448,-56,227,1,0
23.34396,-16360,-1080,656,-2432,-13,172,1,0
23.36055,-16212,-1336,660,-2480,-19,77,1,0
23.39373,-16404,-1100,560,-2448,92,6,1,0
23.39373,-16488,-1372,908,-2432,33,-67,1,0
23.4435,-16236,-1196,784,-2480,-204,241,1,0
23.47668,-16528,-1276,684,-2464,-178,165,1,0
23.47668,-16516,-1000,664,-2432,-103,153,1,0
23.52645,-16352,-1084,708,-2448,-20,111,1,0
23.57621,-16428,-1228,788,-2464,-76,141,1,0
23.57621,-16464,-1028,636,-2448,6,140,1,0
23.62598,-16560,-1244,852,-2480,-10,161,1,0
23.65916,-16468,-1176,960,-2464,-11,162,1,0
23.67575,-16428,-1288,892,-2416,-90,193,1,0
23.70893,-16468,-1328,528,-2416,-155,228,1,0
23.7587,-16492,-1248,724,-2432,-105,116,1,0
23.7587,-16428,-1236,648,-2448,-176,252,1,0
23.80847,-16492,-1100,820,-2432,-68,111,1,0
23.84165,-16360,-1104,684,-2448,-59,250,1,0
23.89142,-16388,-1132,660,-2416,11,183,1,0
23.89142,-16488,-1296,636,-2432,-23,93,1,0
23.94118,-16352,-1232,804,-2432,-19,179,1,0
23.97436,-16420,-1308,844,-2464,-39,136,1,0
23.97436,-16344,-1320,752,-2448,-139,271,1,0
24.02413,-16376,-1220,792,-2448,-136,101,1,0
24.0739,-16516,-1188,452,-2464,-180,239,1,0
24.10708,-16500,-988,528,-2448,-7,42,1,0
24.12367,-16144,-1272,864,-2432,-17,101,1,0
24.15685,-16456,-1176,712,-2448,-74,133,1,0
24.20662,-16552,-1176,724,-2432,-66,88,1,0
24.20662,-16440,-1188,588,-2432,-32,51,1,0
24.25639,-16396,-1240,972,-2432,-85,50,1,0
24.30616,-16348,-1244,732,-2448,-126,132,1,0
24.32275,-16324,-1004,788,-2432,-169,227,1,0
24.32275,-16232,-1092,908,-2400,-169,181,1,0
24.3891,-16376,-1060,760,-2432,-190,342,1,0
24.42229,-16432,-1188,580,-2416,-42,155,1,0
24.47205,-16432,-1184,760,-2432,-20,125,1,0
24.47205,-16348,-1152,692,-2432,-76,202,1,0
24.48864,-16548,-1272,692,-2464,-99,255,1,1
24.53841,-16456,-1136,568,-2448,-58,245,1,1
24.53841,-16280,-1192,708,-2416,-5,240,1,1
24.60477,-16416,-1004,676,-2464,-2,273,1,1
24.65454,-16508,-1272,520,-2464,54,208,1,1
24.65454,-16280,-1252,592,-2448,-35,265,1,1
24.7043,-16448,-1312,704,-2432,-115,242,1,1
24.73748,-16292,-1120,600,-2400,-136,163,1,1
24.78725,-16416,-1172,712,-2432,-119,154,1,1
24.78725,-16408,-980,520,-2416,-136,185,1,1
24.83702,-16268,-1232,872,-2400,-111,131,1,1
24.87019,-16552,-1252,756,-2448,-77,148,0,1
24.88678,-16472,-1240,460,-2432,-106,195,0,1
24.91996,-16576,-1284,580,-2432,29,-11,0,1
24.96973,-16380,-1324,756,-2432,-103,172,0,1
25.0195,-16328,-1248,664,-2448,-122,156,0,1
25.0195,-16472,-1224,612,-2432,-55,131,0,1
25.05268,-16400,-1284,588,-2432,-90,167,0,1
25.10196,-16320,-1224,560,-2416,-5,147,0,1
25.11855,-16388,-1304,624,-2400,-88,181,0,1
25.15173,-16288,-1216,608,-2432,-84,153,0,1
25.20145,-16476,-1336,864,-2432,-60,133,0,1
25.20145,-16188,-1368,768,-2432,-176,243,0,1
25.2512,-16468,-1164,580,-2432,-100,94,0,1
25.28436,-16384,-1292,716,-2432,-91,192,0,1
25.28436,-16332,-1264,472,-2432,-69,170,0,1
25.3341,-16300,-1224,672,-2480,-71,219,0,1
25.38385,-16476,-1252,600,-2432,-11,129,0,1
25.38385,-16352,-1152,852,-2416,-56,185,0,1
25.41701,-16392,-1236,744,-2432,-78,198,0,1
25.46675,-16444,-1180,644,-2448,-51,138,0,1
25.49992,-16324,-1348,732,-2432,-122,185,0,1
25.49992,-16544,-1312,632,-2448,-137,141,0,1
25.54952,-16472,-1112,696,-2416,-129,146,0,1
25.5994,-16344,-1204,776,-2400,-113,135,0,1
25.64914,-16252,-1168,712,-2432,-60,68,0,1
25.64914,-16376,-1304,732,-2416,-118,248,0,1
25.69888,-16376,-1292,624,-2416,-71,120,0,1
25.73205,-16380,-1264,684,-2432,-118,179,0,1
25.73205,-16284,-1156,648,-2432,-121,241,0,1
25.78179,-16600,-1168,500,-2464,-91,170,0,1
25.83153,-16480,-1208,672,-2432,-11,64,0,1
25.86469,-16344,-1304,852,-2432,-63,265,0,1
25.86469,-16284,-1140,700,-2416,-22,187,0,1
25.91444,-16364,-1276,756,-2432,-75,233,0,1
25.96418,-16396,-1288,728,-2416,-112,144,0,1
25.96418,-16364,-1216,680,-2416,-136,166,0,1
25.99734,-16500,-1228,564,-2400,-71,142,0,1
26.04708,-16540,-1184,704,-2384,-109,232,0,1
26.09683,-16312,-1208,688,-2416,-42,176,0,1
26.09683,-16264,-1368,684,-2400,-123,353,0,1
26.14657,-16432,-1172,856,-2416,-41,127,0,1
26.17973,-16344,-1188,676,-2432,-114,262,0,1
26.22948,-16408,-1144,372,-2416,-92,242,0,0
26.22948,-16420,-1104,724,-2432,-2,115,0,0
26.27922,-16352,-1272,628,-2400,-87,241,0,0
26.31238,-16356,-1212,744,-2400,-62,198,0,0
26.32896,-16284,-1384,764,-2432,-126,289,0,0
26.36212,-16328,-1200,688,-2432,-158,227,0,0
26.41187,-16400,-1072,724,-2432,-138,240,0,0
26.41187,-16484,-1296,556,-2416,-184,238,0,0
26.46161,-16460,-1248,600,-2400,-242,250,0,0
26.49515,-16264,-1244,612,-2416,-179,218,0,0
26.51173,-16376,-1192,656,-2416,-111,119,0,0
26.5449,-16560,-1076,560,-2400,-121,240,0,0
26.59473,-16280,-1300,604,-2432,-103,117,0,0
26.62791,-16340,-1060,576,-2432,-95,216,0,0
26.67622,-16308,-1284,896,-2384,-139,208,0,0
26.67622,-16444,-1156,552,-2416,-163,203,0,0
26.72746,-16312,-1220,452,-2400,-192,226,0,0
26.77724,-16624,-1068,660,-2400,-68,125,0,0
26.81042,-16308,-1240,764,-2400,-124,291,0,0
26.81042,-16304,-1216,488,-2400,-323,538,0,0
26.8602,-16460,-1204,468,-2416,-311,724,0,0
26.90998,-16464,-1304,812,-2400,-278,439,0,0
26.90998,-16432,-1136,664,-2400,-318,381,0,0
26.95975,-16516,-1088,404,-2416,-373,459,0,0
26.99294,-16544,-796,444,-2432,-271,409,0,0
26.99294,-16444,-948,416,-2432,-109,199,0,0
27.04272,-16276,-1172,544,-2400,-241,299,0,0
27.0759,-16408,-1012,352,-2416,-304,369,0,0
27.09249,-16332,-1036,548,-2416,-379,401,0,0
27.12568,-16560,-996,208,-2432,-322,413,0,0
27.17546,-16296,-1136,468,-2400,-404,535,0,0
27.17546,-16316,-964,448,-2416,-582,625,0,0
27.22523,-16280,-772,256,-2416,-371,407,0,0
27.25838,-16348,-1024,524,-2416,-356,274,0,0
27.30819,-16500,-1052,324,-2416,-431,449,0,0
27.30819,-16280,-908,348,-2400,-364,385,0,0
27.35796,-16360,-1112,632,-2400,-550,307,0,0
27.39115,-16408,-1228,480,-2400,-858,520,0,0
27.40774,-16640,-920,0,-2416,-811,578,0,0
27.44093,-16620,-696,200,-2368,-592,464,0,0
27.4907,-16196,-816,356,-2400,-552,484,0,0
27.54048,-16276,-1020,292,-2352,-699,521,0,0
27.54048,-16364,-840,88,-2448,-616,604,0,0
27.59026,-16664,-720,-80,-2400,-492,578,0,0
27.62344,-16348,-932,256,-2416,-548,446,0,0
27.62344,-16444,-744,76,-2416,-589,464,0,0
27.67322,-16608,-812,-84,-2432,-575,371,0,0
27.723,-16460,-572,-16,-2448,-356,246,0,0
27.75618,-16544,-852,-112,-2368,-344,497,0,0
27.77277,-16520,-600,-28,-2432,-373,520,0,0
27.80596,-16456,-472,-60,-2416,-290,346,0,0
27.85573,-16632,-672,120,-2416,-223,419,0,0
27.88892,-16428,-604,-80,-2384,-389,788,0,0
27.93869,-16476,-276,-300,-2432,-246,560,0,0
27.93869,-16276,-552,56,-2432,-146,229,0,0
27.98847,-16340,-572,-8,-2400,-329,422,0,0
28.02166,-16368,-320,-292,-2416,-518,480,0,0
28.03825,-16428,-364,-260,-2400,-548,559,0,0
28.07144,-16448,-572,92,-2384,-558,422,0,0
28.12075,-16416,-416,-128,-2400,-612,415,0,0
28.12075,-16564,-300,-424,-2400,-455,335,0,0
28.1705,-16488,-412,-384,-2384,-387,422,0,0
28.20367,-16356,-344,-352,-2400,-342,479,0,0
28.20367,-16552,-344,-404,-2400,-276,380,0,0
28.25342,-16352,-192,-176,-2432,-467,586,0,0
28.30317,-16528,-372,-580,-2384,-322,514,0,0
28.35292,-16516,-412,-120,-2384,-340,315,0,0
28.35292,-16492,-196,-476,-2416,-360,379,0,0
28.38609,-16480,-168,-380,-2416,-344,208,0,0
28.43584,-16448,-288,-556,-2384,-264,260,0,0
28.48559,-16588,-132,-504,-2400,-180,343,0,0
28.48559,-16480,-356,-520,-2384,-225,308,0,0
28.51876,-16664,-256,-588,-2368,-216,297,0,0
28.56851,-16480,-248,-472,-2400,-198,267,0,0
28.61826,-16580,-284,-716,-2416,-218,142,0,0
28.61826,-16516,-336,-592,-2432,-62,89,0,0
28.65143,-16580,-260,-436,-2384,-99,282,0,0
28.70118,-16492,-260,-552,-2400,-88,181,0,0
28.70118,-16328,-252,-312,-2416,-98,156,0,0
28.75093,-16592,-212,-616,-2368,-85,135,0,0
28.80068,-16368,-276,-476,-2400,-90,-24,0,0
28.80068,-16380,-392,-340,-2384,-96,85,0,0
28.8836,-16400,-256,-404,-2384,-120,96,0,0
28.8836,-16344,-188,-596,-2400,-115,45,0,0
28.93334,-16456,-360,-152,-2368,-147,127,0,0
28.96652,-16528,-148,-556,-2352,-244,196,0,0
28.9831,-16412,228,-544,-2368,-248,11,0,0
29.01627,-16644,-264,-140,-2400,11,-19,0,0
29.06602,-16468,-88,-344,-2368,6,189,0,0
29.11577,-16560,-124,-372,-2384,-66,291,0,0
29.11577,-16552,-216,-552,-2400,-83,191,0,0
29.14893,-16484,-132,-588,-2384,-87,178,0,0
29.19868,-16432,-52,-408,-2384,-9,157,0,0
29.19868,-16424,-200,-368,-2400,-59,170,0,0
29.24844,-16500,-56,-516,-2384,-56,198,0,0
29.29819,-16456,-188,-376,-2400,-87,251,0,0
29.33136,-16376,-4,-544,-2368,-141,237,0,0
29.34794,-16372,-172,-392,-2368,-163,130,0,0
29.39769,-16472,-228,-220,-2368,-233,221,0,0
29.43086,-16528,-68,-404,-2352,-195,167,0,0
29.43086,-16460,24,-528,-2384,-146,194,0,0
29.46403,-16504,-80,-528,-2400,-202,313,0,0
29.51378,-16620,16,-756,-2384,-53,-46,0,0
29.56353,-16792,176,-448,-2384,124,-68,0,0
29.56353,-16608,128,-352,-2416,106,29,0,0
29.61328,-16544,-332,-300,-2384,84,105,0,0
29.64645,-16532,-116,-348,-2368,56,141,0,0
29.64645,-16288,-240,-148,-2368,-103,165,0,0
29.69664,-16576,-32,-272,-2400,-90,164,0,0
29.74633,-16556,-196,-316,-2352,-117,135,0,0
29.77948,-16608,-40,-192,-2368,-195,237,0,0
29.82921,-16364,-164,-140,-2352,-242,335,0,0
29.82921,-16440,144,-492,-2416,-60,459,0,0
29.87894,-16420,-116,-324,-2400,72,278,0,0
29.9121,-16596,-92,-456,-2384,-94,393,0,0
29.9121,-16372,44,-564,-2368,-58,316,0,0
29.96182,-16544,-172,-472,-2384,-3,146,0,0
30.01155,-16584,76,-700,-2400,26,177,0,0
30.01155,-16544,-304,-512,-2352,-16,18,0,0
30.06128,-16648,96,-536,-2384,-142,189,0,0
30.11101,-16336,-128,-476,-2400,-168,142,0,0
30.14417,-16292,-48,-392,-2368,-308,263,0,0
30.14417,-16480,8,-596,-2368,-220,164,0,0
30.1939,-16556,-56,-356,-2416,-168,127,0,0
30.22747,-16564,-28,-572,-2368,-187,184,0,0
30.22747,-16528,56,-532,-2384,-157,223,0,0
30.2772,-16736,-132,-640,-2368,-47,79,0,0
30.32709,-16544,-8,-492,-2384,-135,226,0,0
30.32709,-16380,-28,-448,-2368,-72,131,0,0
30.37688,-16480,16,-448,-2384,-82,229,0,0
30.41007,-16440,-268,-512,-2352,-110,185,0,0
30.45987,-16532,20,-424,-2400,-156,100,0,0
30.45987,-16528,0,-376,-2384,-144,152,0,0
30.50966,-16624,-52,-284,-2400,-227,244,0,0
30.54286,-16376,124,-520,-2384,-236,295,0,0
30.55945,-16572,20,-544,-2384,-166,223,0,0
30.59265,-16632,-104,-464,-2400,-135,221,0,0
30.64244,-16504,56,-548,-2368,-51,241,0,0
30.67564,-16548,-24,-384,-2368,-24,181,0,0
30.69223,-16504,112,-492,-2384,-55,229,0,0
30.72543,-16324,44,-532,-2352,-76,131,0,0
30.77522,-16448,124,-568,-2400,-130,199,0,0
30.77522,-16660,16,-384,-2400,19,94,0,0
30.82502,-16580,16,-504,-2384,-41,237,0,0
30.85822,-16568,156,-600,-2384,-95,274,0,0
30.90801,-16628,72,-444,-2368,-74,179,0,0
30.90801,-16532,-120,-384,-2416,-165,180,0,0
30.9578,-16552,52,-404,-2368,-106,90,0,0
31.0076,-16588,12,-564,-2384,-137,209,0,0
31.0076,-16428,28,-644,-2400,-53,70,0,0
31.04079,-16632,12,-456,-2368,1,86,0,0
31.09058,-16408,-48,-332,-2352,-58,176,0,0
31.13986,-16480,60,-420,-2400,-76,223,0,0
31.13986,-16516,92,-736,-2352,-91,149,0,0
31.17306,-16668,-32,-560,-2384,-171,138,0,0
31.22281,-16452,-24,-496,-2368,-102,108,0,0
31.27259,-16548,-64,-384,-2368,-58,179,0,0
31.27259,-16300,72,-380,-2400,-134,152,0,0
31.32237,-16508,112,-676,-2384,-176,207,0,0
31.35555,-16468,-36,-476,-2368,-140,38,0,0
31.40532,-16644,40,-480,-2384,-153,129,0,0
31.40532,-16676,-8,-460,-2368,-166,155,0,0
31.4551,-16520,-8,-492,-2368,-33,200,0,0
31.48828,-16500,-112,-376,-2384,-47,137,0,0
31.50488,-16476,104,-672,-2352,-129,250,0,0
31.53806,-16336,-28,-396,-2384,-15,66,0,0
31.58784,-16468,136,-460,-2368,-148,196,0,0
31.58784,-16580,-28,-476,-2336,-137,143,0,0
31.63761,-16456,120,-516,-2368,-157,207,0,0
31.6708,-16544,-120,-524,-2352,-81,158,0,0
31.6708,-16604,80,-448,-2384,-44,122,0,0
31.72058,-16448,52,-628,-2368,-79,198,0,0
31.77035,-16572,76,-520,-2400,-73,181,0,0
31.80354,-16528,-24,-616,-2384,-99,126,0,0
31.80354,-16440,48,-548,-2368,-117,135,0,0
31.85332,-16464,132,-624,-2336,-64,103,0,0
31.90309,-16432,-32,-380,-2336,-76,154,0,0
31.93628,-16468,-12,-368,-2368,-79,167,0,0
31.95287,-16692,0,-504,-2352,-148,153,0,0
31.98605,-16536,-36,-516,-2384,-75,78,0,0
32.03583,-16620,0,-532,-2384,-41,155,0,0
32.03583,-16488,-28,-584,-2368,-32,146,0,0
32.08561,-16544,-36,-488,-2368,-97,232,0,0
32.13538,-16556,28,-500,-2352,-104,133,0,0
32.16856,-16504,96,-344,-2384,-76,159,0,0
32.16856,-16420,108,-392,-2368,-109,267,0,0
32.21834,-16532,64,-784,-2368,-89,165,0,0
32.21834,-16304,-20,-508,-2368,-74,-6,0,0
32.26812,-16592,108,-528,-2368,-86,165,0,0
32.3013,-16488,16,-560,-2336,-88,266,0,0
32.35107,-16440,-60,-480,-2384,-48,197,0,0
32.40035,-16496,-28,-496,-2336,-108,95,0,0
32.40035,-16584,-80,-472,-2384,-224,216,0,0
32.43353,-16596,116,-320,-2352,-130,96,0,0
32.48325,-16524,24,-508,-2336,-180,234,0,0
32.48325,-16432,160,-616,-2352,-81,84,0,0
32.533,-16500,72,-412,-2352,-115,223,0,0
32.56616,-16352,224,-556,-2384,-72,152,0,0
32.58274,-16540,188,-556,-2352,-49,106,0,0
32.61591,-16576,52,-488,-2368,-31,67,0,0
32.66566,-16496,-32,-396,-2400,-68,123,1,0
32.66566,-16576,240,-604,-2368,-82,146,1,0
32.69883,-16500,64,-448,-2368,-102,60,1,0
32.74858,-16580,116,-428,-2352,-83,64,1,0
32.79833,-16656,-64,-488,-2384,-112,136,1,0
32.79833,-16452,180,-476,-2352,-95,203,1,0
32.84808,-16328,72,-552,-2352,-46,147,1,0
32.89783,-16408,56,-444,-2336,-65,161,1,0
32.93099,-16412,152,-492,-2336,-74,160,1,0
32.93099,-16700,-8,-412,-2352,-59,193,1,0
32.98074,-16488,80,-532,-2368,-31,126,1,0
33.03049,-16672,-8,-344,-2352,-96,68,1,0
33.03049,-16568,100,-416,-2368,-10,106,1,0
33.06366,-16424,68,-496,-2352,-18,129,1,1
33.1134,-16568,44,-684,-2320,-13,102,1,1
33.16315,-16524,104,-492,-2352,34,-19,1,1
33.16315,-16408,164,-348,-2352,39,-109,1,1
33.19632,-16524,144,-440,-2368,-22,15,1,1
33.24607,-16380,104,-376,-2352,63,-208,1,1
33.24607,-16364,-52,-220,-2352,-51,-149,1,1
33.29581,-16556,228,-380,-2368,-118,32,1,1
33.34557,-16572,0,-388,-2352,-1,-65,1,1
33.37873,-16592,-160,-296,-2336,50,34,1,1
33.37873,-16388,-28,-120,-2320,-39,53,1,1
33.42848,-16332,184,-736,-2368,-61,120,1,1
33.47823,-16400,92,-440,-2384,218,-151,1,1
33.51139,-16608,-248,-120,-2384,75,-133,1,1
33.52798,-16732,-140,-424,-2304,39,-65,1,1
33.56115,-16672,-104,-168,-2352,149,-354,1,1
33.6109,-16328,16,-388,-2384,139,-239,1,1
33.6109,-16476,-192,-220,-2352,65,-571,1,1
33.66064,-16556,-228,-228,-2352,160,-402,1,1
33.69381,-16408,-276,-88,-2336,280,-548,1,1
33.74356,-16572,-360,-100,-2352,164,-336,1,1
33.76014,-16572,-484,56,-2368,218,-380,1,1
33.79367,-16432,-208,-160,-2336,131,-342,1,1
33.82684,-16600,-240,-144,-2352,215,-393,1,1
33.84342,-16396,-316,276,-2336,318,-587,1,1
33.87667,-16628,-452,216,-2304,130,-301,1,1
33.92647,-16484,-240,156,-2368,167,-395,1,1
33.92647,-16580,-456,188,-2368,187,-353,1,1
33.97626,-16472,-320,252,-2368,85,-164,1,1
34.02607,-16540,-360,312,-2336,111,-253,1,1
34.04266,-16380,-352,332,-2336,202,-432,1,1
34.04266,-16340,-572,644,-2336,34,-205,1,1
34.09246,-16512,-320,268,-2320,-90,-4,1,1
34.12566,-16576,-248,336,-2368,12,-145,1,1
34.12566,-16596,-408,272,-2336,200,-173,1,1
34.17547,-16532,-580,460,-2368,141,-115,1,1
34.20866,-16336,-508,500,-2368,97,-114,1,1
34.25846,-16408,-508,548,-2368,70,-100,1,1
34.25846,-16336,-424,528,-2320,99,-145,1,1
34.30826,-16428,-352,580,-2320,6,-68,1,1
34.35806,-16540,-452,524,-2336,22,-165,1,1
34.35806,-16480,-424,456,-2352,-12,25,1,1
34.39058,-16368,-464,540,-2336,81,-57,1,1
34.44106,-16640,-608,772,-2320,110,-74,1,1
34.49086,-16396,-396,656,-2320,-29,133,1,1
34.49086,-16588,-480,356,-2336,98,-46,1,1
34.54066,-16380,-596,652,-2320,140,-109,1,1
34.57386,-16532,-660,624,-2352,29,53,1,1
34.60706,-16552,-604,568,-2352,52,-25,1,1
34.62366,-16364,-696,744,-2336,60,-36,1,1
34.65638,-16584,-716,688,-2304,29,67,1,1
34.65638,-16596,-588,508,-2336,90,-111,1,1
34.75584,-16524,-684,692,-2336,59,-108,1,1
34.78901,-16588,-896,832,-2320,121,-182,1,1
34.83876,-16328,-828,892,-2336,-69,-13,1,1
34.83876,-16368,-660,736,-2336,-86,16,1,1
34.88851,-16468,-580,688,-2336,-111,-113,1,1
34.92167,-16548,-656,808,-2320,38,-224,1,1
34.93825,-16568,-556,812,-2352,94,-138,1,1
34.95482,-16104,-624,568,-2336,203,-147,1,1
34.988,-16472,-1004,1028,-2352,277,-293,1,1
35.02116,-16424,-920,728,-2320,142,-200,1,1
35.03775,-16524,-968,1164,-2352,117,-106,1,1
35.07091,-16628,-900,888,-2352,-41,-48,1,1
35.12066,-16364,-748,1016,-2304,-24,-137,1,1
35.13725,-16508,-808,984,-2352,-43,-54,1,1
35.15383,-16608,-704,1044,-2336,32,-34,1,1
35.20358,-16460,-824,1028,-2320,25,19,1,1
35.25332,-16408,-832,820,-2320,151,-66,1,1
35.28648,-16400,-720,1116,-2320,191,-113,1,1
35.30307,-16320,-948,1348,-2320,83,-63,1,1
35.35281,-16496,-996,1248,-2304,-79,107,1,1
35.38597,-16452,-768,1236,-2336,-89,151,1,1
35.38597,-16636,-608,1000,-2304,-85,243,1,1
35.4523,-16580,-852,944,-2320,41,72,1,1
35.46889,-16312,-848,1060,-2336,118,-34,1,1
35.48523,-16280,-800,940,-2320,84,57,1,1
35.53522,-16320,-948,968,-2320,-36,-27,1,1
35.58495,-16552,-848,1072,-2320,-42,2,1,1
35.63472,-16460,-944,1380,-2368,-12,-63,1,1
35.63472,-16168,-924,1176,-2368,-254,178,1,1
35.68446,-16252,-892,1244,-2336,-281,29,1,1
35.68446,-16476,-684,1156,-2320,-216,46,1,1
35.68446,-16460,-644,1180,-2336,-104,11,1,1
35.7508,-16256,-696,1128,-2320,-21,4,1,1
35.80055,-16268,-856,1372,-2304,-36,14,1,1
35.81713,-16404,-848,1168,-2352,3,140,1,1
35.86689,-16456,-1000,1140,-2336,-8,150,1,1
35.90005,-16440,-996,1216,-2304,-9,212,1,1
35.91664,-16264,-1152,1304,-2352,-159,218,1,1
35.9498,-16488,-1028,1256,-2336,-159,159,1,1
35.99955,-16420,-1120,1272,-2320,-135,268,1,1
35.99955,-16324,-884,1288,-2336,-41,237,1,1
36.0493,-16520,-880,992,-2320,69,280,1,1
36.08247,-16324,-924,1108,-2304,164,267,1,1
36.08247,-16276,-1052,1272,-2320,178,198,1,1
36.13259,-16268,-1044,1068,-2336,93,240,1,1
36.18234,-16444,-1188,1028,-2304,-20,231,1,1
36.21552,-16172,-1092,1132,-2336,-84,191,1,1
36.23211,-16448,-1228,1248,-2320,-294,258,1,1
36.26529,-16488,-908,992,-2352,-139,24,1,1
36.31505,-16344,-1208,1400,-2320,4,-9,1,1
36.31505,-16136,-1020,1204,-2336,-138,282,1,1
36.36481,-16284,-988,944,-2320,-8,57,1,1
36.39798,-16292,-1216,1140,-2336,-10,131,1,1
36.44775,-16216,-1264,1288,-2320,19,77,1,1
36.48093,-16244,-1132,1204,-2320,-88,207,1,1
36.49751,-16460,-1088,1220,-2320,-21,109,1,1
36.53069,-16264,-1132,1212,-2304,-31,189,1,1
36.58045,-16112,-1204,1116,-2320,-72,205,1,1
36.59704,-16412,-1192,1296,-2320,-33,108,1,1
36.63021,-16300,-1164,1144,-2336,-35,162,1,1
36.66339,-16384,-1180,1208,-2336,-32,159,1,1
36.67998,-16376,-1176,1276,-2336,-61,132,1,1
36.71315,-16416,-1128,1156,-2320,-99,267,1,1
36.76292,-16364,-1744,1040,-2320,100,261,1,1
36.76292,-16444,-1268,996,-2336,-104,204,1,1
36.81268,-16412,-1184,1272,-2304,-64,204,1,1
36.84586,-16336,-1108,1036,-2336,-130,250,1,1
36.89562,-16544,-1228,1040,-2320,-98,144,1,1
36.89562,-16400,-1088,1308,-2336,-102,112,1,1
36.94538,-16332,-1248,1084,-2336,-163,216,1,1
36.97856,-16200,-1176,1352,-2336,-169,292,1,1
36.99514,-16516,-1152,1128,-2320,-163,280,1,1
37.02832,-16392,-1072,1152,-2336,58,116,1,1
37.07809,-16168,-1120,1344,-2320,-93,362,1,1
37.12785,-16392,-1092,1012,-2336,-76,345,1,1
37.12785,-16232,-1060,1008,-2352,-46,267,1,1
37.16103,-16396,-1220,996,-2320,-52,158,1,1
37.21078,-16304,-1232,1208,-2320,-109,127,1,1
37.24396,-16336,-1028,1112,-2320,-144,135,1,1
37.24396,-16588,-1100,968,-2320,-125,137,1,1
37.27714,-16480,-1372,1180,-2288,-52,-60,1,1
37.29373,-16464,-1200,888,-2304,-185,201,1,1
37.3269,-16544,-972,1132,-2320,25,-24,1,1
37.36008,-16340,-1168,1072,-2320,18,185,1,1
37.40984,-16416,-1116,980,-2288,150,-8,1,1
37.40984,-16420,-1196,1188,-2320,102,161,1,1
37.47619,-16280,-1172,1208,-2304,68,186,1,1
37.50937,-16136,-1108,1352,-2320,61,224,1,1
37.50937,-16176,-1256,1260,-2288,-88,256,1,1
37.54254,-16512,-1200,976,-2336,-103,198,1,1
37.59231,-16268,-1252,1112,-2320,-77,219,1,1
37.64207,-16220,-1340,1060,-2288,-122,218,1,1
37.65865,-16496,-1248,1144,-2320,-122,373,1,1
37.69139,-16376,-1268,1076,-2336,32,180,1,1
37.72501,-16356,-1384,1248,-2336,-45,323,1,1
37.72501,-16216,-1236,1288,-2304,-46,236,1,1
37.79137,-16504,-1088,1052,-2320,-19,214,1,1
37.84113,-16552,-1368,1148,-2304,-33,242,1,1
37.84113,-16476,-1336,1128,-2336,-63,257,1,1
37.8909,-16224,-1128,872,-2304,-51,175,1,1
37.92213,-16372,-1276,1216,-2304,-74,256,1,1
37.97383,-16456,-1324,820,-2320,-82,274,1,1
37.97383,-16416,-1196,944,-2352,32,115,1,1
38.0236,-16316,-1428,1336,-2336,-16,132,1,1
38.05678,-16396,-1212,980,-2352,-91,221,1,1
38.10654,-16440,-1288,1052,-2320,-76,160,1,1
38.10654,-16428,-1316,1052,-2288,-61,111,1,1
38.1563,-16400,-1316,1272,-2320,-63,129,1,1
38.1563,-16268,-1220,1172,-2336,-103,185,1,1
38.23925,-16536,-1308,1080,-2336,-114,196,1,1
38.25583,-16168,-1120,1000,-2288,21,75,1,1
38.28901,-16328,-1428,1140,-2336,-185,309,1,1
38.33877,-16524,-1212,880,-2320,-44,108,1,1
38.33877,-16468,-1492,1104,-2336,-84,196,1,1
38.38854,-16236,-1168,964,-2272,-51,199,1,1
38.38854,-16276,-1376,1056,-2288,-52,144,1,1
38.4383,-16548,-1256,1092,-2336,-46,164,1,1
38.47147,-16348,-1360,1144,-2320,-94,255,1,1
38.52124,-16144,-1216,956,-2272,-64,124,1,1
38.52124,-16456,-1316,1168,-2336,-90,209,1,1
38.571,-16452,-1244,1232,-2304,-60,131,1,1
38.58757,-16480,-1324,964,-2304,-104,215,1,1
38.62075,-16228,-1336,968,-2256,-101,194,1,1
38.63734,-16452,-1288,1080,-2304,-95,120,1,1
38.67052,-16340,-1320,980,-2304,-118,149,1,1
38.7037,-16320,-1176,1252,-2304,-112,201,1,1
38.72028,-16356,-1180,956,-2304,-83,224,1,1
38.75346,-16456,-1420,1028,-2304,-33,147,1,1
38.80319,-16228,-1336,1292,-2304,-68,140,1,1
38.85295,-16436,-1312,992,-2320,-126,267,1,1
38.86954,-16240,-1136,880,-2304,-16,46,1,1
38.90272,-16432,-1408,1116,-2304,-46,85,1,1
38.9359,-16280,-1224,924,-2304,-129,242,1,1
38.95249,-16520,-1412,1096,-2320,-85,108,1,1
38.98566,-16480,-1208,916,-2288,-95,132,1,1
39.03543,-16116,-1184,896,-2288,-82,187,1,1
39.03543,-16380,-1244,1188,-2272,-70,103,1,1
39.08519,-16396,-1164,984,-2320,-62,176,1,1
39.10178,-16444,-1336,996,-2304,-16,105,0,1
39.16814,-16428,-1400,1152,-2304,-123,271,0,1
39.16814,-16188,-1284,1148,-2336,-129,229,0,1
39.25108,-16344,-1212,832,-2304,-107,207,0,1
39.28426,-16392,-1312,1136,-2304,29,0,0,1
39.28426,-16168,-1436,1128,-2272,-62,185,0,1
39.31755,-16648,-1292,980,-2304,-80,195,0,1
39.36732,-16152,-1292,1248,-2320,-11,129,0,1
39.41709,-16236,-1296,1088,-2304,-65,200,0,1
39.41709,-16332,-1284,1068,-2288,-92,173,0,1
39.46686,-16460,-1272,1076,-2304,-76,184,0,1
39.50004,-16480,-1228,916,-2304,-61,153,0,1
39.54981,-16484,-1268,1000,-2336,-101,157,0,1
39.54981,-16224,-1216,896,-2304,-141,178,0,1
39.59958,-16180,-1268,1116,-2304,-116,136,0,1
39.61614,-16348,-1396,992,-2256,-137,121,0,1
39.61614,-16392,-1216,1280,-2288,-86,146,0,1
39.68253,-16476,-1324,1012,-2256,-72,179,0,1
39.71571,-16388,-1288,1192,-2304,-92,191,0,1
39.71571,-16220,-1300,1096,-2288,-116,217,0,1
39.76547,-16144,-1264,1028,-2288,-137,255,0,0
39.81524,-16520,-1248,960,-2304,-101,208,0,0
39.81524,-16612,-1276,1024,-2304,-88,256,0,0
39.84821,-16312,-1304,1224,-2304,-125,347,0,0
39.88145,-16116,-1296,1120,-2304,-200,433,0,0
39.89819,-16396,-1268,1168,-2304,-255,387,0,0
39.94796,-16284,-1256,976,-2304,-284,515,0,0
39.96455,-16344,-1364,1152,-2304,-357,495,0,0
40.03091,-16256,-1072,792,-2288,-514,833,0,0
40.08067,-16664,-972,796,-2304,-399,628,0,0
40.11386,-16316,-1192,808,-2304,-314,684,0,0
40.11386,-16200,-1260,1028,-2288,-335,917,0,0
40.14703,-16264,-1244,824,-2304,-110,519,0,0
40.1968,-16252,-1228,916,-2320,-291,900,0,0
40.1968,-16304,-1032,444,-2320,-314,882,0,0
40.22998,-16292,-1088,584,-2304,-294,539,0,0
40.22998,-16580,-1132,876,-2304,-681,458,0,0
40.32951,-16436,-1020,160,-2288,-487,891,0,0
40.3461,-16444,-1036,744,-2288,-405,593,0,0
40.37928,-16472,-1028,516,-2288,-361,430,0,0
40.39587,-16624,-984,516,-2272,-431,616,0,0
40.41246,-16468,-1080,464,-2304,-362,537,0,0
40.46223,-16588,-1084,700,-2304,-385,428,0,0
40.512,-16468,-792,132,-2320,-291,446,0,0
40.52859,-16524,-1000,396,-2288,-295,429,0,0
40.54487,-16668,-944,108,-2272,-328,513,0,0
40.61154,-16480,-760,332,-2288,-264,451,0,0
40.61154,-16468,-776,236,-2288,-338,490,0,0
40.66131,-16372,-868,152,-2304,-435,516,0,0
40.69448,-16736,-940,196,-2304,-610,850,0,0
40.7438,-16376,-896,100,-2304,-413,631,0,0
40.7438,-16452,-804,184,-2272,-359,636,0,0
40.79353,-16228,-844,316,-2272,-406,563,0,0
40.81009,-16308,-800,172,-2272,-449,565,0,0
40.81009,-16392,-696,4,-2256,-598,826,0,0
40.87639,-16444,-620,-224,-2304,-391,546,0,0
40.92572,-16208,-680,32,-2272,-381,557,0,0
40.92572,-16660,-828,-56,-2288,-581,664,0,0
40.95927,-16392,-648,-40,-2272,-538,554,0,0
41.00899,-16524,-648,-72,-2272,-406,350,0,0
41.02557,-16592,-648,-248,-2256,-461,483,0,0
41.0753,-16512,-452,-312,-2288,-413,532,0,0
41.09187,-16212,-596,60,-2304,-337,424,0,0
41.15817,-16400,-444,-264,-2288,-206,455,0,0
41.15817,-16544,-536,-240,-2304,-134,322,0,0
41.22448,-16448,-612,-108,-2288,-163,455,0,0
41.25763,-16372,-608,-252,-2304,-90,467,0,0
41.30735,-16484,-788,32,-2304,-256,487,0,0
41.30735,-16356,-644,-28,-2272,-371,421,0,0
41.35708,-16568,-440,-516,-2288,-645,710,0,0
41.39023,-16444,-264,-624,-2272,-299,282,0,0
41.42338,-16428,-372,-392,-2288,-194,335,0,0
41.43995,-16576,-476,-448,-2304,-178,453,0,0
41.4731,-16476,-596,-340,-2304,-114,347,0,0
41.52324,-16628,-412,-476,-2256,-158,337,0,0
41.52324,-16640,-564,-472,-2288,-26,235,0,0
41.57296,-16468,-344,-292,-2272,-88,695,0,0
41.60621,-16532,-640,-464,-2320,-176,470,0,0
41.60621,-16364,-744,-392,-2272,-163,266,0,0
41.63939,-16616,-452,-568,-2240,-303,307,0,0
41.68916,-16440,-564,-548,-2304,-284,129,0,0
41.72234,-16272,-432,-356,-2304,-253,267,0,0
41.75551,-16620,-700,-728,-2256,-498,539,0,0
41.77211,-16684,-344,-680,-2256,-426,303,0,0
41.82188,-16608,-68,-704,-2272,-212,293,0,0
41.87164,-16460,-376,-412,-2288,-97,217,0,0
41.88823,-16484,-376,-596,-2240,-188,297,0,0
41.92141,-16528,-512,-256,-2272,-266,230,0,0
41.97118,-16440,-284,-672,-2272,-301,263,0,0
42.00436,-16524,-416,-540,-2272,-259,104,0,0
42.00436,-16424,-344,-704,-2272,-301,244,0,0
42.05412,-16720,-536,-712,-2272,-271,184,0,0
42.0873,-16384,-352,-780,-2288,-243,105,0,0
42.13707,-16320,-324,-608,-2272,-193,166,0,0
42.13707,-16388,-580,-468,-2288,-217,46,0,0
42.18684,-16568,-336,-580,-2304,-349,226,0,0
42.23661,-16568,-284,-776,-2272,-268,248,0,0
42.28638,-16652,-452,-764,-2256,-277,218,0,0
42.28638,-16396,-420,-512,-2272,-368,247,0,0
42.33614,-16432,-312,-604,-2288,-343,184,0,0
42.4025,-16428,-268,-884,-2304,-406,313,0,0
42.4025,-16516,-440,-652,-2256,-327,139,0,0
42.4025,-16584,-400,-536,-2288,-343,112,0,0
42.45227,-16412,-412,-384,-2288,-436,251,0,0
42.50204,-16332,-216,-632,-2272,-269,235,0,0
42.50204,-16384,-492,-576,-2272,-193,116,0,0
42.53522,-16436,-428,-652,-2256,-258,242,0,0
42.58499,-16328,-232,-712,-2304,-232,318,0,0
42.58499,-16544,-340,-608,-2288,-285,302,0,0
42.63476,-16160,132,-488,-2256,-348,179,0,0
42.66794,-16748,-440,-732,-2272,-148,487,0,0
42.71771,-16308,-372,-668,-2272,4,142,0,0
42.7343,-16332,-252,-628,-2272,-68,191,0,0
42.78407,-16436,-308,-644,-2288,-87,170,0,0
42.81677,-16468,-412,-472,-2288,-96,214,0,0
42.86655,-16612,-420,-756,-2256,-134,217,0,0
42.8997,-16560,-428,-536,-2288,-108,120,0,0
42.8997,-16536,-412,-732,-2272,-162,149,0,0
42.94946,-16500,-300,-868,-2288,-110,199,0,0
42.99921,-16656,-420,-684,-2272,-97,165,0,0
43.01579,-16324,-436,-660,-2288,-157,248,0,0
43.04897,-16556,-308,-600,-2288,-118,207,0,0
43.08214,-16560,-380,-744,-2288,-51,152,0,0
43.11531,-16412,-284,-660,-2256,-96,174,0,0
43.11531,-16624,-392,-856,-2288,-54,151,0,0
43.18165,-16396,-276,-684,-2288,-131,186,0,0
43.21482,-16572,-268,-692,-2272,-89,127,0,0
43.21482,-16404,-252,-688,-2256,-97,172,0,0
43.26457,-16592,-320,-672,-2272,-141,139,0,0
43.29774,-16448,-320,-708,-2272,-94,145,0,0
43.29774,-16360,-372,-556,-2256,-105,9,0,0
43.36409,-16760,-452,-764,-2240,-106,90,0,0
43.39725,-16580,-424,-800,-2240,-183,201,0,0
43.43042,-16508,-268,-680,-2272,-106,136,0,0
43.44701,-16632,-484,-668,-2240,-103,183,0,0
43.49677,-16332,-392,-468,-2272,-45,182,0,0
43.54652,-16340,-264,-660,-2272,-113,154,0,0
43.59628,-16636,-312,-636,-2272,-134,243,0,0
43.59628,-16540,-292,-708,-2256,-89,166,0,0
43.64603,-16596,-468,-580,-2272,-103,157,0,0
43.69579,-16500,-356,-692,-2256,-20,42,0,0
43.72896,-16336,-280,-524,-2240,-131,213,0,0
43.72896,-16616,-468,-696,-2272,-135,221,0,0
43.77871,-16304,-300,-708,-2240,-165,130,0,0
43.82847,-16472,-316,-544,-2240,-97,91,0,0
43.82847,-16528,-280,-728,-2240,-130,240,0,0
43.87822,-16604,-336,-688,-2272,-39,163,0,0
43.9114,-16460,-332,-788,-2272,-84,205,0,0
43.96116,-16592,-460,-748,-2240,-13,154,0,0
43.96116,-16316,-332,-548,-2288,-13,191,0,0
44.01091,-16648,-356,-708,-2272,-23,199,0,0
44.04408,-16496,-328,-708,-2272,-88,195,0,0
44.04408,-16592,-420,-664,-2288,-160,241,0,0
44.09383,-16532,-280,-624,-2240,-170,158,0,0
44.14359,-16360,-352,-624,-2240,-48,145,0,0
44.16018,-16560,-324,-736,-2256,-91,195,0,0
44.22652,-16396,-404,-868,-2288,-111,66,0,0
44.22652,-16452,-392,-776,-2272,-126,97,0,0
44.27627,-16660,-480,-812,-2256,-83,-25,0,0
44.32603,-16596,-360,-628,-2240,-105,112,0,0
44.3592,-16664,-424,-636,-2272,-90,153,0,0
44.3592,-16388,-220,-768,-2272,-129,131,0,0
44.40895,-16268,-252,-660,-2256,-117,149,0,0
44.45871,-16612,-460,-616,-2272,-132,236,0,0
44.45871,-16640,-296,-648,-2256,-119,192,0,0
44.50846,-16632,-372,-544,-2240,41,91,0,0
44.54164,-16296,-300,-512,-2272,-52,230,0,0
44.59139,-16384,-292,-496,-2240,-154,176,0,0
44.59139,-16372,-208,-852,-2256,-187,279,0,0
44.64114,-16568,-384,-764,-2272,-5,105,0,0
44.67431,-16504,-324,-588,-2240,-105,209,0,0
44.67431,-16400,-424,-760,-2240,-149,152,0,0
44.70748,-16464,-244,-780,-2288,-102,177,0,0
44.74064,-16612,-496,-784,-2288,-49,102,0,0
44.75723,-16660,-332,-644,-2256,-101,221,0,0
44.80698,-16680,-452,-556,-2240,13,161,0,0
44.85674,-16476,-284,-640,-2272,-13,134,0,0
44.88991,-16576,-372,-544,-2240,3,160,0,0
44.90649,-16620,-412,-620,-2288,-19,150,0,0
44.97275,-16452,-352,-676,-2240,36,48,0,0
44.97275,-16368,-360,-576,-2272,-59,184,0,0
45.006,-16328,-312,-688,-2272,-52,118,0,0
45.03918,-16392,-216,-648,-2272,-64,169,1,0
45.05576,-16532,-396,-648,-2240,-90,144,1,0
45.1221,-16700,-364,-688,-2240,-90,194,1,0
45.13869,-16432,-316,-656,-2256,-70,151,1,0
45.18809,-16620,-404,-576,-2256,-115,132,1,0
45.20503,-16624,-380,-544,-2256,-158,167,1,0
45.22161,-16368,-364,-676,-2272,-66,143,1,0
45.28796,-16628,-396,-680,-2272,-73,272,1,0
45.28796,-16696,-428,-820,-2240,63,70,1,0
45.32112,-16440,-440,-660,-2272,-2,238,1,0
45.35429,-16584,-336,-800,-2240,-53,237,1,0
45.38747,-16396,-344,-692,-2240,-2,114,1,0
45.42064,-16360,-332,-808,-2240,-56,216,1,0
45.48697,-16696,-328,-728,-2272,-68,91,1,0
45.48697,-16396,-296,-660,-2272,-66,118,1,0
45.52015,-16328,-336,-716,-2256,-107,108,1,0
45.55331,-16484,-384,-608,-2256,-94,75,1,0
45.60307,-16368,-392,-856,-2288,-87,96,1,0
45.60307,-16520,-380,-680,-2256,-10,63,1,0
45.65282,-16336,-324,-720,-2272,-55,105,1,0
45.70258,-16428,-300,-828,-2240,-15,15,1,0
45.73575,-16444,-352,-796,-2272,4,124,1,1
45.75233,-16580,-436,-508,-2272,110,-25,1,1
45.7855,-16496,-380,-556,-2272,34,34,1,1
45.83526,-16840,-276,-664,-2256,99,-21,1,1
45.83526,-16628,-436,-740,-2272,110,-27,1,1
45.88502,-16248,-344,-528,-2240,112,-107,1,1
45.93478,-16488,-400,-476,-2240,160,-123,1,1
45.98454,-16548,-484,-336,-2256,42,22,1,1
45.98454,-16384,-328,-404,-2256,48,-106,1,1
46.03429,-16384,-372,-576,-2240,10,-153,1,1
46.05088,-16748,-480,-612,-2240,31,-227,1,1
46.11722,-16404,-372,-464,-2272,149,-334,1,1
46.11722,-16380,-464,-432,-2256,172,-275,1,1
46.16697,-16616,-520,-280,-2256,336,-439,1,1
46.20015,-16548,-604,-348,-2256,334,-389,1,1
46.21673,-16556,-604,-480,-2256,352,-394,1,1
46.26648,-16264,-536,-44,-2256,350,-456,1,1
46.29965,-16292,-620,-92,-2208,158,-261,1,1
46.29965,-16516,-700,-40,-2240,121,-265,1,1
46.3494,-16572,-788,-72,-2240,129,-308,1,1
46.38256,-16372,-536,-244,-2272,101,-213,1,1
46.39914,-16500,-756,-96,-2256,163,-202,1,1
46.42906,-16400,-732,92,-2240,145,-180,1,1
46.46548,-16416,-784,8,-2256,81,-85,1,1
46.49865,-16500,-788,-196,-2224,153,-172,1,1
46.54822,-16244,-796,-8,-2240,123,-200,1,1
46.56499,-16592,-1060,-24,-2272,68,-46,1,1
46.59816,-16356,-816,28,-2240,34,5,1,1
46.63134,-16516,-752,-128,-2256,36,-75,1,1
46.64781,-16288,-552,24,-2240,113,-176,1,1
46.69767,-16640,-716,12,-2288,177,-140,1,1
46.73085,-16504,-952,172,-2256,232,-263,1,1
46.76402,-16364,-916,236,-2272,224,-267,1,1
46.7806,-16336,-904,388,-2240,168,-348,1,1
46.84694,-16436,-908,180,-2240,18,-260,1,1
46.88012,-16352,-832,268,-2240,-13,-285,1,1
46.92987,-16488,-720,284,-2224,28,-269,1,1
46.92987,-16488,-840,412,-2240,132,-187,1,1
46.94622,-16520,-856,348,-2224,175,-296,1,1
47.01279,-16560,-1040,332,-2240,140,-210,1,1
47.02938,-16416,-924,556,-2240,117,-64,1,1
47.06255,-16364,-836,368,-2256,179,-285,1,1
47.11231,-16424,-760,336,-2272,114,-194,1,1
47.11231,-16308,-884,508,-2224,194,-319,1,1
47.14548,-16392,-1004,672,-2240,17,-183,1,1
47.19524,-16456,-728,360,-2272,-16,-61,1,1
47.24499,-16668,-1220,604,-2240,-2,24,1,1
47.24499,-16324,-1000,852,-2256,-374,109,1,1
47.29475,-16808,-1100,460,-2240,-10,-288,1,1
47.32792,-16504,-1104,408,-2224,17,-54,1,1
47.32792,-16368,-904,436,-2224,153,-101,1,1
47.37768,-16424,-816,688,-2256,108,-83,1,1
47.42744,-16352,-932,540,-2240,26,-58,1,1
47.42744,-16408,-768,700,-2240,99,-116,1,1
47.46061,-16400,-932,816,-2208,191,-244,1,1
47.51036,-16400,-740,772,-2208,98,35,1,1
47.54353,-16344,-1176,624,-2240,228,82,1,1
47.54353,-16264,-804,776,-2256,71,-93,1,1
47.59326,-16320,-748,936,-2256,19,-282,1,1
47.64301,-16508,-668,748,-2240,40,-25,1,1
47.64301,-16640,-944,616,-2256,180,-203,1,1
47.69278,-16380,-852,844,-2272,127,-54,1,1
47.70937,-16424,-728,836,-2224,91,38,1,1
47.70937,-16364,-932,988,-2208,85,12,1,1
47.7923,-16240,-1008,1116,-2240,-75,100,1,1
47.82547,-16740,-620,652,-2272,-264,341,1,1
47.84206,-16536,-576,724,-2224,-3,12,1,1
47.87523,-16508,-896,884,-2240,43,-5,1,1
47.9084,-16228,-764,976,-2224,93,-9,1,1
47.94157,-16384,-700,748,-2224,176,53,1,1
47.94157,-16276,-928,984,-2224,242,-73,1,1
48.00791,-16288,-924,984,-2240,118,-36,1,1
48.05766,-16404,-972,1132,-2240,-65,-40,1,1
48.05766,-16592,-744,872,-2224,-134,-28,1,1
48.07425,-16572,-776,1004,-2208,-42,-28,1,1
48.14059,-16436,-876,1128,-2240,10,-68,1,1
48.17376,-16360,-456,1240,-2240,-23,-248,1,1
48.20693,-16456,-856,1212,-2272,161,-92,1,1
48.20693,-16200,-684,1092,-2240,77,-18,1,1
48.27327,-16368,-732,1228,-2256,112,-89,1,1
48.28986,-16460,-900,964,-2240,57,-106,1,1
48.30644,-16560,-920,1076,-2256,185,-153,1,1
48.35619,-16376,-764,1152,-2208,-24,31,1,1
48.38936,-16332,-636,992,-2208,-16,-37,1,1
48.43912,-16320,-820,1116,-2208,123,-156,1,1
48.43912,-16416,-896,1296,-2240,68,83,1,1
48.47229,-16424,-840,1380,-2224,27,56,1,1
48.53863,-16452,-648,1140,-2208,70,39,1,1
48.53863,-16588,-584,1432,-2240,-76,49,1,1
48.57165,-16356,-1004,1240,-2272,62,72,1,1
48.63814,-16172,-696,1512,-2272,-7,136,1,1
48.65472,-16316,-776,1384,-2240,-101,322,1,1
48.68789,-16320,-772,1124,-2240,30,-84,1,1
48.68789,-16476,-892,1200,-2256,-19,291,1,1
48.73765,-16456,-804,1036,-2256,53,111,1,1
48.80399,-16160,-816,1392,-2240,29,137,1,1
48.80399,-16528,-796,1000,-2208,69,155,1,1
48.87033,-16320,-860,1200,-2240,60,-24,1,1
48.87033,-16304,-792,1252,-2192,-51,76,1,1
48.90351,-16388,-720,1304,-2224,-56,89,1,1
48.96985,-16464,-796,1292,-2208,-128,148,1,1
48.96985,-16320,-768,1312,-2240,-105,94,1,1
48.98643,-16456,-776,1112,-2256,-155,150,1,1
49.05278,-16600,-808,1280,-2208,33,17,1,1
49.08595,-16216,-812,1412,-2240,-51,156,1,1
49.10254,-16400,-816,1212,-2240,-81,162,1,1
49.1357,-16360,-776,1268,-2208,-33,139,1,1
49.18546,-16356,-856,1244,-2240,-28,104,1,1
49.18546,-16548,-800,1252,-2224,-90,153,1,1
49.21863,-16496,-728,1180,-2224,-23,116,1,1
49.26839,-16672,-832,1008,-2208,87,53,1,1
49.28497,-16256,-892,1400,-2224,16,144,1,1
49.31814,-16316,-856,1260,-2256,-25,244,1,1
49.35131,-16300,-816,1292,-2208,45,70,1,1
49.40107,-16556,-920,1408,-2224,-24,209,1,1
49.40107,-16396,-912,1168,-2240,-36,114,1,1
49.45082,-16344,-776,1188,-2224,-110,195,1,1
49.50058,-16336,-716,1296,-2208,-51,128,1,1
49.50058,-16420,-756,1044,-2224,93,3,1,1
49.53375,-16284,-908,1340,-2224,-161,345,1,1
49.56691,-16424,-744,1228,-2208,-34,86,1,1
49.5835,-16308,-732,1448,-2256,-10,108,1,1
49.63326,-16276,-880,1412,-2208,-111,200,1,1
49.64984,-16380,-748,1204,-2224,-38,159,1,1
49.64984,-16424,-872,1380,-2256,-87,175,1,1
49.69959,-16280,-744,1284,-2240,-33,119,1,1
49.76594,-16400,-808,1212,-2240,-38,108,1,1
49.79911,-16324,-908,1252,-2224,-67,221,1,1
49.84887,-16168,-836,1224,-2256,-47,211,1,1
49.86546,-16316,-840,1104,-2208,-11,72,1,1
49.89863,-16552,-680,1288,-2192,114,-198,1,1
49.94838,-16436,-1036,1208,-2192,-102,312,1,1
49.94838,-16372,-848,1244,-2224,-81,193,1,1
49.99814,-16520,-908,1564,-2224,-61,106,1,1
50.03131,-16424,-900,1460,-2208,-55,108,1,1
50.03131,-16400,-852,1316,-2240,-100,225,1,1
50.08107,-16196,-728,1448,-2208,-98,254,1,1
50.13079,-16672,-836,1304,-2224,-31,182,1,1
50.13079,-16176,-880,1520,-2192,-84,241,1,1
50.16399,-16260,-636,1344,-2224,-73,225,1,1
50.21375,-16540,-768,1280,-2256,-69,150,1,1
50.23033,-16128,-736,1276,-2240,-67,201,1,1
50.23033,-16280,-808,1360,-2240,-55,83,1,1
50.28008,-16428,-816,1368,-2224,-92,168,1,1
50.32984,-16448,-824,1308,-2224,-112,168,1,1
50.34642,-16324,-824,1428,-2176,-87,115,1,1
50.36301,-16468,-848,1360,-2208,-78,91,1,1
50.42935,-16452,-760,1440,-2256,-94,181,1,1
50.44574,-16424,-860,1348,-2192,-27,190,1,1
50.44574,-16320,-732,1356,-2192,-39,237,1,1
50.49569,-16472,-880,1220,-2208,-37,200,1,1
50.54545,-16324,-860,1264,-2176,-39,205,1,1
50.57861,-16472,-808,1376,-2240,-94,141,1,1
50.57861,-16532,-780,1176,-2208,-96,162,1,1
50.64495,-16460,-972,1332,-2224,-122,168,1,1
50.71129,-16452,-804,1400,-2192,-124,274,1,1
50.71129,-16416,-772,1236,-2240,-105,256,1,1
50.76105,-16344,-668,1244,-2240,50,63,1,1
50.79406,-16324,-956,1232,-2224,7,215,1,1
50.82739,-16476,-836,1168,-2208,-89,249,1,1
50.82739,-16580,-864,1228,-2240,-22,94,1,1
50.89373,-16468,-912,1364,-2240,-28,132,1,1
50.94348,-16296,-896,1508,-2224,-133,211,1,1
50.94348,-16532,-736,1252,-2224,-92,156,1,1
50.96006,-16352,-656,1184,-2208,-71,170,1,1
51.00982,-16256,-728,1224,-2224,-73,177,1,1
51.00982,-16480,-992,1112,-2208,-128,307,1,1
51.07616,-16524,-912,1376,-2240,-64,109,1,1
51.10933,-16292,-716,1344,-2208,-41,173,1,1
51.10933,-16348,-732,1176,-2224,-64,133,1,1
51.15909,-16296,-788,1160,-2224,-113,135,1,1
51.20885,-16196,-704,1356,-2208,-73,198,1,1
51.24202,-16432,-852,1324,-2224,-87,241,1,1
51.25861,-16288,-796,1220,-2224,-155,214,1,1
51.30836,-16320,-992,1472,-2224,-66,-86,1,1
51.34153,-16328,-880,1276,-2208,-130,153,1,1
51.39129,-16380,-820,1172,-2240,-60,-52,1,1
51.39129,-16504,-860,1296,-2272,-106,-9,1,1
51.40787,-16228,-648,1404,-2208,-256,161,1,1
51.42446,-16600,-820,1160,-2256,-119,190,1,1
51.47422,-16220,-796,1220,-2240,-66,205,1,1
51.52397,-16536,-824,1264,-2208,-97,229,1,1
51.55714,-16316,-788,1172,-2192,-35,178,1,1
51.57373,-16388,-924,1352,-2208,-118,240,0,1
51.6069,-16256,-708,1260,-2176,-74,214,0,1
51.65665,-16372,-988,1096,-2224,-115,260,0,1
51.68982,-16720,-800,1424,-2256,18,85,0,1
51.68982,-16428,-900,1364,-2224,-21,158,0,1
51.75616,-16308,-820,1196,-2176,-99,196,0,1
51.77275,-16528,-736,1028,-2208,-105,126,0,1
51.78933,-16144,-760,1456,-2176,-113,96,0,1
51.83909,-16392,-860,1140,-2192,-92,90,0,1
51.87226,-16428,-900,1340,-2208,-99,173,0,1
51.88884,-16232,-720,1444,-2208,-113,198,0,1
51.93859,-16332,-788,1380,-2224,-88,146,0,1
51.97177,-16256,-868,1300,-2224,-121,220,0,1
52.05469,-16584,-760,1312,-2240,-47,119,0,1
52.07127,-16216,-696,1164,-2224,-116,177,0,1
52.10445,-16444,-760,1044,-2224,-67,90,0,1
52.10445,-16540,-940,1168,-2192,-73,85,0,1
52.1542,-16416,-796,1428,-2208,-97,109,0,1
52.18737,-16468,-784,1400,-2208,-82,83,0,1
52.20396,-16504,-908,1452,-2192,-108,141,0,1
52.22054,-16352,-796,1252,-2192,-112,175,0,1
52.28688,-16348,-744,1192,-2192,-95,144,0,1
52.28688,-16280,-820,1144,-2224,-74,181,0,1
52.32005,-16464,-780,1072,-2208,-65,146,0,1
52.32005,-16312,-792,1360,-2192,-111,195,0,1
52.35323,-16216,-832,1324,-2224,-85,173,0,1
52.41957,-16416,-780,1304,-2224,-115,167,0,1
52.46933,-16380,-724,1224,-2192,-103,193,0,1
52.46933,-16340,-772,1196,-2176,-62,189,0,1
52.51908,-16196,-952,1432,-2208,-98,146,0,1
52.53567,-16612,-840,1196,-2192,-104,215,0,1
52.53567,-16276,-808,1268,-2192,-139,297,0,1
52.58498,-16644,-684,1156,-2208,-30,121,0,1
52.65125,-16344,-928,1404,-2240,-63,206,0,1
52.65125,-16072,-784,1304,-2208,-159,274,0,1
52.6844,-16408,-896,1144,-2224,-168,327,0,1
52.73413,-16292,-848,1292,-2208,-119,209,0,0
52.73413,-16212,-784,1232,-2208,-205,375,0,0
52.78385,-16472,-848,1348,-2224,-193,316,0,0
52.83358,-16500,-744,1280,-2192,-209,430,0,0
52.86673,-16516,-808,1304,-2208,-202,451,0,0
52.86673,-16360,-996,1280,-2176,-315,482,0,0
52.91645,-16640,-776,1136,-2224,-338,442,0,0
52.96618,-16328,-740,1012,-2224,-335,500,0,0
52.96618,-16476,-736,1128,-2208,-346,536,0,0
52.99934,-16460,-772,1296,-2192,-243,365,0,0
53.04906,-16224,-1020,1592,-2224,-483,607,0,0
53.08221,-16084,-1092,1452,-2224,-792,1418,0,0
53.09879,-16272,-988,1300,-2176,-1190,1727,0,0
53.13194,-16500,-344,384,-2224,-1003,1571,0,0
53.18166,-16692,-624,680,-2208,-702,1304,0,0
53.18166,-16172,-600,576,-2192,-866,1340,0,0
53.21481,-16508,-448,176,-2208,-671,945,0,0
53.24823,-16768,-256,-120,-2176,-373,509,0,0
53.31454,-16496,-668,964,-2224,-598,1064,0,0
53.31454,-16568,-832,640,-2192,-875,1140,0,0
53.36429,-16756,-464,-104,-2208,-652,830,0,0
53.38087,-16656,-32,-140,-2208,-352,483,0,0
53.43061,-15856,-764,496,-2176,-92,259,0,0
53.43061,-16224,-588,432,-2192,-417,227,0,0
53.48035,-16520,-452,304,-2208,-551,438,0,0
53.51351,-16280,-320,184,-2208,-327,22,0,0
53.51351,-16464,-384,360,-2160,-298,191,0,0
53.57983,-16376,-364,492,-2208,-191,171,0,0
53.62957,-16440,-216,452,-2208,-189,386,0,0
53.66272,-16456,-192,212,-2176,-199,437,0,0
53.66272,-16468,-220,80,-2208,-165,387,0,0
53.69588,-16288,-384,284,-2224,-209,330,0,0
53.74561,-16504,-180,108,-2224,-341,490,0,0
53.74561,-16384,-324,148,-2208,-305,338,0,0
53.79536,-16668,-332,40,-2192,-250,344,0,0
53.8451,-16420,-304,44,-2208,-196,305,0,0
53.91142,-16528,-272,128,-2160,-159,237,0,0
53.91142,-16468,-228,196,-2176,-196,324,0,0
53.928,-16536,-260,-8,-2176,-214,407,0,0
53.99432,-16412,-216,112,-2208,-123,315,0,0
53.99432,-16584,-436,36,-2160,-176,339,0,0
54.04406,-16560,-336,28,-2208,-231,385,0,0
54.0938,-16356,-296,164,-2208,-267,562,0,0
54.0938,-16220,-88,224,-2208,-269,236,0,0
54.12695,-16376,-344,208,-2208,-503,599,0,0
54.17669,-16436,-144,-136,-2192,-574,729,0,0
54.17669,-16696,-104,-232,-2224,-451,618,0,0
54.20985,-16512,-168,-132,-2224,-288,421,0,0
54.25959,-16460,-188,72,-2176,-372,588,0,0
54.30933,-16576,-188,-388,-2176,-436,744,0,0
54.30933,-16576,-56,-356,-2176,-338,460,0,0
54.35907,-16608,-320,-120,-2208,-430,209,0,0
54.40881,-16728,-60,-264,-2192,-364,548,0,0
54.40881,-16364,-4,-188,-2192,-286,546,0,0
54.44197,-16580,-120,-372,-2192,-290,508,0,0
54.49171,-16568,-80,-144,-2208,-346,668,0,0
54.54145,-16420,72,-204,-2176,-349,619,0,0
54.57461,-16528,132,-188,-2176,-484,548,0,0
54.59119,-16532,-40,-100,-2160,-644,875,0,0
54.62434,-16588,292,-660,-2160,-773,992,0,0
54.67408,-16592,152,-608,-2176,-699,648,0,0
54.67408,-16652,-404,-628,-2208,-726,344,0,0
54.72383,-16460,236,-676,-2208,-813,702,0,0
54.75698,-16468,376,-784,-2192,-446,415,0,0
54.80672,-16236,136,-476,-2160,-103,193,0,0
54.80672,-16412,148,-672,-2192,22,545,0,0
54.83988,-16752,244,-544,-2208,100,1696,0,0
54.88962,-16784,-196,-644,-2208,311,386,0,0
54.93936,-16356,-96,-412,-2192,-91,521,0,0
54.9891,-16660,-48,-684,-2192,-212,496,0,0
54.9891,-16708,168,-1036,-2224,-85,331,0,0
55.03884,-16280,76,-748,-2176,3,208,0,0
55.072,-16276,-36,-584,-2208,-275,492,0,0
55.072,-16432,128,-896,-2208,-357,641,0,0
55.12174,-16416,104,-948,-2208,-276,621,0,0
55.17148,-16500,-72,-740,-2192,-213,362,0,0
55.17148,-16568,144,-868,-2176,-353,495,0,0
55.20464,-16680,152,-1252,-2208,-237,407,0,0
55.25438,-16528,304,-1288,-2192,-59,306,0,0
55.25438,-16428,272,-1040,-2192,-19,204,0,0
55.30412,-16256,48,-924,-2192,-73,164,0,0
55.33728,-16372,92,-1104,-2192,-66,105,0,0
55.35386,-16312,96,-808,-2224,-124,109,0,0
55.37043,-16592,140,-1032,-2176,-197,145,0,0
55.42017,-16508,124,-964,-2208,-114,82,0,0
55.42017,-16444,116,-1060,-2192,-209,223,0,0
55.48689,-16468,352,-964,-2176,-68,143,0,0
55.53663,-16712,112,-1240,-2176,65,117,0,0
55.58636,-16360,256,-1216,-2240,108,231,0,0
55.58636,-16208,60,-648,-2176,118,268,0,0
55.6361,-16228,144,-872,-2208,-44,405,0,0
55.66926,-16280,252,-1000,-2192,1,234,0,0
55.68584,-16428,44,-956,-2160,-28,135,0,0
55.70242,-16504,76,-920,-2176,-95,166,0,0
55.75216,-16648,148,-1080,-2208,-167,208,0,0
55.75216,-16364,200,-948,-2192,-162,112,0,0
55.78532,-16652,148,-880,-2192,-133,125,0,0
55.85164,-16468,156,-1132,-2176,-233,138,0,0
55.85164,-16412,36,-932,-2192,-259,30,0,0
55.86822,-16628,-4,-860,-2176,-199,99,0,0
55.91796,-16572,156,-840,-2208,-70,93,0,0
55.96769,-16400,128,-852,-2208,-77,169,0,0
55.96769,-16528,172,-1172,-2192,-152,277,0,0
56.00086,-16488,224,-812,-2176,-58,107,0,0
56.06718,-16392,140,-1000,-2192,-136,100,0,0
56.06718,-16392,188,-900,-2176,-135,148,0,0
56.11691,-16456,224,-1160,-2192,-176,225,0,0
56.15007,-16408,152,-848,-2192,-50,-43,0,0
56.19981,-16612,160,-728,-2192,-87,203,0,0
56.19981,-16644,128,-844,-2208,-111,307,0,0
56.23297,-16436,104,-984,-2208,-74,230,0,0
56.28271,-16660,124,-872,-2176,-104,272,0,0
56.31587,-16604,152,-1040,-2160,-101,290,0,0
56.36561,-16332,316,-1064,-2192,-84,288,0,0
56.36561,-16248,128,-904,-2192,-67,255,0,0
56.43193,-16292,348,-1036,-2160,-110,311,0,0
56.46508,-16364,428,-880,-2208,-63,259,0,0
56.48166,-16348,264,-976,-2160,-133,304,0,0
56.49824,-16464,176,-960,-2192,-216,278,0,0
56.56456,-16324,164,-848,-2208,-189,441,0,0
56.56456,-16524,344,-1216,-2176,-161,418,0,0
56.6147,-16576,212,-1024,-2176,-120,294,0,0
56.63128,-16528,136,-1012,-2176,-170,359,0,0
56.63128,-16436,64,-1104,-2176,-423,697,0,0
56.69765,-16400,288,-1256,-2160,-293,282,0,0
56.69765,-16748,216,-892,-2176,-154,133,0,0
56.74741,-16612,192,-928,-2176,-170,525,0,0
56.78058,-16476,352,-1112,-2144,-179,322,0,0
56.83034,-16400,308,-1292,-2176,-279,282,0,0
56.83034,-16628,420,-1120,-2176,-205,231,0,0
56.88009,-16676,316,-992,-2192,-182,174,0,0
56.92986,-16584,260,-1296,-2192,-130,234,0,0
56.94645,-16460,312,-1176,-2160,-219,314,0,0
56.96303,-16380,176,-1344,-2208,-154,294,0,0
57.01279,-16716,256,-1048,-2192,-66,91,0,0
57.06255,-16448,448,-1208,-2176,53,127,0,0
57.06255,-16240,308,-1196,-2144,-14,206,0,0
57.11231,-16728,228,-980,-2176,-1,190,0,0
57.14548,-16228,516,-1204,-2160,-88,233,0,0
57.19524,-16616,360,-1236,-2176,-63,114,0,0
57.19524,-16292,436,-1256,-2192,-86,115,0,0
57.22842,-16476,480,-1040,-2160,-137,182,0,0
57.27818,-16492,380,-1336,-2192,-105,126,0,0
57.27818,-16664,336,-1256,-2176,-93,118,0,0
57.29477,-16292,512,-1160,-2128,127,96,0,0
57.36112,-16532,388,-1208,-2144,32,259,0,0
57.3777,-16532,348,-1160,-2176,17,128,0,0
57.41088,-16404,340,-1088,-2192,-11,208,0,0
57.46064,-16340,236,-1172,-2192,-122,179,0,0
57.49381,-16320,404,-1284,-2176,-130,178,0,0
57.5104,-16500,328,-984,-2160,-128,200,0,0
57.56016,-16552,428,-1004,-2144,-66,208,0,0
57.57674,-16424,424,-1192,-2160,-107,203,0,0
57.59333,-16312,420,-1044,-2176,-112,201,0,0
57.64309,-16292,436,-1268,-2176,-208,216,0,0
57.69285,-16652,380,-1236,-2160,-116,134,0,0
57.69285,-16504,612,-1056,-2176,-174,219,0,0
57.72602,-16576,480,-1304,-2176,-169,133,0,0
57.77579,-16708,400,-1368,-2192,-259,368,0,0
57.77579,-16484,296,-1132,-2176,-170,451,0,0
57.80828,-16540,380,-1184,-2176,-154,177,0,0
57.85872,-16732,392,-1192,-2176,-97,111,0,0
57.90848,-16380,376,-1228,-2176,-102,228,0,0
57.90848,-16288,564,-1176,-2176,-149,194,0,0
57.95824,-16352,552,-1304,-2176,-58,184,0,0
57.97483,-16576,464,-1220,-2128,-42,227,0,0
57.97483,-16684,332,-1152,-2144,-98,272,0,0
58.04118,-16348,468,-1324,-2128,-73,184,0,0
58.05777,-16480,632,-1312,-2192,-119,233,0,0
58.12396,-16664,332,-1316,-2160,-57,178,0,0
58.12396,-16632,372,-1404,-2176,-64,172,0,0
58.14523,-16632,292,-1104,-2160,-70,197,0,0
58.20705,-16284,420,-1416,-2176,-39,357,0,0
58.20705,-16676,408,-1280,-2160,-90,194,0,0
58.24023,-16684,376,-1324,-2176,-71,169,0,0
58.30658,-16532,352,-1212,-2208,-41,118,0,0
58.35633,-16296,356,-1304,-2176,-83,219,0,0
58.3895,-16524,384,-1312,-2160,-63,206,0,0
58.3895,-16408,456,-1312,-2192,-71,204,0,0
58.45585,-16652,356,-1188,-2176,-97,171,0,0
58.48903,-16608,484,-1220,-2192,-173,239,0,0
58.50562,-16552,396,-1288,-2144,-198,209,0,0
58.53879,-16468,516,-1356,-2160,-169,203,0,0
58.57196,-16372,452,-1336,-2160,-204,82,0,0
58.58855,-16536,468,-1324,-2176,-200,170,0,0
58.63831,-16628,320,-1300,-2144,-227,116,0,0
58.67148,-16368,444,-1100,-2176,-229,-11,0,0
58.72124,-16392,648,-1500,-2144,-338,131,0,0
58.72124,-16492,640,-1488,-2176,-258,105,0,0
58.771,-16288,540,-1284,-2144,-245,95,0,0
58.80418,-16644,472,-1208,-2192,-132,130,0,0
58.82077,-16364,760,-1368,-2208,-28,196,0,0
58.85394,-16580,524,-1372,-2144,-34,136,0,0
58.9037,-16676,548,-1312,-2192,2,100,0,0
58.93687,-16532,500,-1220,-2176,-71,137,0,0
58.95346,-16284,540,-1156,-2176,-83,68,0,0
58.98663,-16680,472,-1236,-2160,-147,110,0,0
59.0364,-16372,540,-1320,-2176,-167,33,0,0
59.0364,-16428,524,-1308,-2144,-247,47,1,0
59.08616,-16600,348,-1140,-2160,-201,2,1,0
59.11933,-16548,460,-1116,-2144,-213,32,1,0
59.16909,-16692,568,-1120,-2144,-89,48,1,0
59.16909,-16388,500,-1248,-2144,-60,77,1,0
59.21885,-16656,396,-1032,-2192,-40,155,1,0
59.26861,-16456,540,-1152,-2160,-24,197,1,0
59.26861,-16540,576,-1116,-2176,3,166,1,0
59.30178,-16512,628,-1224,-2160,-123,183,1,0
59.33496,-16600,388,-940,-2144,-53,121,1,0
59.33496,-16584,448,-1012,-2160,-94,153,1,0
59.40131,-16256,624,-1096,-2176,-4,113,1,0
59.43448,-16572,468,-1380,-2160,-44,124,1,0
59.43448,-16364,448,-1548,-2176,-38,131,1,0
59.48425,-16368,516,-1192,-2160,-67,151,1,0
59.534,-16684,548,-1108,-2160,-21,107,1,0
59.58376,-16612,496,-960,-2160,-42,61,1,0
59.60035,-16372,616,-1208,-2160,-27,46,1,0
59.61694,-16608,552,-1072,-2144,25,0,1,0
59.6667,-16576,456,-1032,-2176,-70,114,1,0
59.69982,-16732,480,-1396,-2144,-97,18,1,0
59.71646,-16344,436,-1192,-2192,-24,-37,1,0
59.73305,-16528,380,-988,-2144,-4,-32,1,0
59.79939,-16588,408,-1236,-2176,65,-137,1,0
59.79939,-16556,184,-1348,-2128,-15,-756,1,0
59.84916,-16804,316,-992,-2144,154,-326,1,0
59.88233,-16792,328,-1060,-2144,99,-210,1,0
59.93209,-16308,444,-776,-2176,80,-294,1,1
59.93209,-16620,276,-760,-2144,-83,-202,1,1
59.98185,-16456,244,-920,-2160,-10,-362,1,1
60.03161,-16296,364,-892,-2192,32,-283,1,1
60.06479,-16640,268,-976,-2160,137,-453,1,1
60.08137,-16296,152,-784,-2160,360,-661,1,1
60.11419,-16364,336,-796,-2160,434,-801,1,1
60.16431,-16564,196,-800,-2144,401,-865,1,1
60.16431,-16608,188,-524,-2144,729,-1136,1,1
60.19748,-16484,28,36,-2176,730,-1247,1,1
60.24724,-16384,300,-52,-2144,240,-461,1,1
60.297,-16360,128,-292,-2176,50,-354,1,1
60.297,-16660,432,-540,-2144,212,-276,1,1
60.33017,-16636,164,-216,-2176,195,-529,1,1
60.37994,-16408,136,-172,-2144,87,-549,1,1
60.37994,-16776,88,-424,-2192,51,-346,1,1
60.4297,-16420,216,-88,-2128,251,-707,1,1
60.46287,-16296,-64,28,-2160,324,-869,1,1
60.51263,-16504,40,204,-2176,169,-568,1,1
60.51263,-16640,-188,-8,-2128,116,-485,1,1
60.56239,-16360,264,108,-2160,286,-521,1,1
60.59557,-16544,-32,60,-2176,239,-695,1,1
60.61216,-16500,100,332,-2144,225,-459,1,1
60.66191,-16560,-80,192,-2144,243,-400,1,1
60.69509,-16428,-20,284,-2208,257,-564,1,1
60.69509,-16292,32,296,-2192,176,-298,1,1
60.74485,-16652,0,408,-2144,210,-423,1,1
60.79462,-16404,-12,596,-2192,150,-381,1,1
60.79462,-16700,-44,472,-2176,132,-168,1,1
60.84438,-16504,-76,348,-2160,219,-190,1,1
60.86096,-16616,-52,288,-2128,226,-329,1,1
60.92731,-16480,-56,544,-2128,238,-333,1,1
60.92731,-16392,-12,468,-2144,133,-126,1,1
60.96048,-16484,-72,508,-2144,150,-211,1,1
61.01025,-16364,-228,680,-2176,132,-232,1,1
61.06001,-16584,-200,700,-2160,-5,-152,1,1
61.06001,-16668,-176,500,-2176,22,-32,1,1
61.10976,-16748,-4,580,-2160,194,-109,1,1
61.14294,-16180,-72,856,-2160,199,-236,1,1
61.14294,-16420,-248,936,-2144,79,-110,1,1
61.1927,-16504,-284,724,-2144,1,-27,1,1
61.24246,-16680,-224,640,-2128,42,-31,1,1
61.27563,-16444,-152,752,-2176,60,-120,1,1
61.27563,-16308,-180,800,-2112,90,-210,1,1
61.32539,-16536,-332,936,-2160,86,-104,1,1
61.37516,-16704,-208,692,-2160,62,-146,1,1
61.37516,-16308,-208,848,-2176,10,-82,1,1
61.42492,-16428,-248,900,-2128,23,-30,1,1
61.45809,-16768,-76,728,-2176,135,-70,1,1
61.50785,-16476,-260,1016,-2160,151,-75,1,1
61.50785,-16632,-224,780,-2144,215,-155,1,1
61.54102,-16236,-220,1084,-2112,108,-64,1,1
61.55761,-16580,-284,792,-2176,67,-106,1,1
61.60737,-16212,-196,792,-2160,139,-211,1,1
61.64055,-16704,-324,1112,-2160,226,-386,1,1
61.64055,-16416,-384,1280,-2160,158,-264,1,1
61.6903,-16460,-200,900,-2144,78,-140,1,1
61.74007,-16248,-264,1020,-2160,59,-91,1,1
61.74007,-16456,-484,1020,-2144,142,-302,1,1
61.78983,-16620,-212,984,-2176,42,-263,1,1
61.82301,-16376,-136,1160,-2144,192,-246,1,1
61.85618,-16436,-380,1316,-2160,99,-169,1,1
61.87269,-16300,-252,1204,-2144,44,-15,1,1
61.92235,-16544,-260,1200,-2144,168,-145,1,1
61.9557,-16440,-240,1628,-2144,176,-181,1,1
61.9557,-16632,-360,1308,-2144,-29,167,1,1
62.00546,-16416,-336,1052,-2176,70,11,1,1
62.03863,-16204,-280,1536,-2144,53,-46,1,1
62.08839,-16376,-236,1368,-2144,7,7,1,1
62.08839,-16324,-284,1236,-2128,104,-67,1,1
62.13816,-16404,-700,1216,-2128,97,-95,1,1
62.18792,-16212,-8,1160,-2144,139,-5,1,1
62.18792,-16408,-260,1512,-2144,128,-501,1,1
62.23768,-16560,-256,1224,-2160,199,-339,1,1
62.27085,-16312,-380,1440,-2144,112,67,1,1
62.32062,-16380,-212,1812,-2144,-16,-2,1,1
62.32062,-16344,-160,1440,-2176,-48,130,1,1
62.37037,-16476,-228,1588,-2160,-55,80,1,1
62.40355,-16576,-748,1272,-2160,261,-201,1,1
62.40355,-16596,12,1624,-2144,58,135,1,1
62.45331,-16492,-284,1576,-2176,79,160,1,1
62.50307,-16432,208,1252,-2128,-13,39,1,1
62.53624,-16336,-156,1476,-2160,295,-128,1,1
62.55283,-16436,-264,1596,-2128,44,61,1,1
62.586,-16316,-200,1704,-2144,22,-69,1,1
62.63577,-16292,-252,1640,-2144,-19,-70,1,1
62.63577,-16448,-308,1668,-2128,15,-43,1,1
62.68553,-16216,-80,1512,-2160,70,-29,1,1
62.7187,-16272,-304,1620,-2176,56,-30,1,1
62.76846,-16740,-92,1444,-2128,44,96,1,1
62.76846,-16392,-248,1616,-2160,143,15,1,1
62.8514,-16192,-120,1776,-2160,181,-19,1,1
62.86798,-16332,-328,1720,-2160,61,17,1,1
62.90116,-16576,-260,1556,-2176,143,-75,1,1
62.90116,-16388,-316,1788,-2128,46,-162,1,1
62.95092,-16376,-280,1692,-2144,104,-17,1,1
63.00068,-16560,-312,1744,-2144,45,92,1,1
63.00068,-16348,-224,1620,-2160,47,37,1,1
63.05045,-16176,-148,1580,-2128,87,-72,1,1
63.08362,-16092,-196,1828,-2144,-78,73,1,1
63.08362,-16368,-220,1776,-2128,86,-57,1,1
63.13338,-16184,-252,1796,-2144,22,24,1,1
63.18314,-16260,-128,1960,-2128,0,112,1,1
63.18314,-16728,-184,1520,-2160,29,15,1,1
63.21632,-16388,-328,1716,-2128,96,-14,1,1
63.26608,-16224,-324,1904,-2160,33,18,1,1
63.26608,-16440,-336,1884,-2144,52,48,1,1
63.29925,-16436,-320,1988,-2144,16,118,1,1
63.34901,-16512,-400,1928,-2176,-20,92,1,1
63.34901,-16268,-368,1896,-2160,-96,231,1,1
63.39877,-16172,-228,1872,-2128,-118,247,1,1
63.44853,-16420,-104,1848,-2160,-85,232,1,1
63.4817,-16268,-340,1700,-2176,-64,220,1,1
63.49829,-16328,-268,1656,-2144,-20,153,1,1
63.53147,-16508,-524,1768,-2144,-112,176,1,1
63.58122,-16580,-204,1824,-2144,-175,333,1,1
63.58122,-16324,-148,1720,-2160,-109,187,1,1
63.63099,-16004,-212,1648,-2144,-129,265,1,1
63.66416,-16348,-256,1876,-2112,-124,296,1,1
63.66416,-16352,-316,1904,-2160,-19,260,1,1
63.71392,-16264,-420,1768,-2128,-64,288,1,1
63.76368,-16620,-256,1688,-2128,-100,308,1,1
63.76368,-16384,-136,1672,-2144,-113,338,1,1
63.79686,-16384,-328,1568,-2128,-57,173,1,1
63.84617,-16332,-288,1880,-2112,-54,136,1,1
63.89594,-16320,-220,1636,-2128,-90,237,1,1
63.89594,-16172,-276,1644,-2128,-58,122,1,1
63.94569,-16564,-328,1508,-2112,-112,86,1,1
63.97887,-16288,-328,1784,-2144,-23,-27,1,1
63.99546,-16236,-324,1928,-2160,-161,167,1,1
64.02863,-16556,-292,1644,-2176,-179,164,1,1
64.0784,-16296,-328,1736,-2144,-102,108,1,1
64.11157,-16400,-276,1780,-2112,-55,3,1,1
64.12816,-16276,-260,1796,-2128,-123,147,1,1
64.16134,-16516,-208,1640,-2160,-93,252,1,1
64.21111,-16468,-292,1704,-2160,-21,130,1,1
64.21111,-16372,-408,1828,-2112,-78,257,1,1
64.24428,-16532,-212,1820,-2144,-73,167,1,1
64.31063,-16548,-360,1660,-2160,-35,156,1,1
64.3438,-16400,-300,1752,-2128,-69,153,1,1
64.3438,-16204,-292,1836,-2144,-105,166,1,1
64.39357,-16056,-348,1936,-2128,-141,183,1,1
64.42674,-16272,-180,1816,-2128,-88,178,1,1
64.42674,-16388,-312,1776,-2160,-65,183,1,1
64.4931,-16428,-184,1776,-2160,-95,236,1,1
64.52627,-16312,-240,1668,-2176,-39,174,1,1
64.55944,-16404,-228,1800,-2160,-63,241,1,1
64.55944,-16228,-252,1816,-2128,-86,180,1,1
64.62579,-16228,-236,1676,-2144,-102,191,1,1
64.64238,-16400,-388,1592,-2144,-117,135,1,1
64.65897,-16408,-500,1876,-2144,-101,132,1,1
64.74191,-16584,-320,1752,-2144,-167,220,1,1
64.74191,-16512,-512,1800,-2144,-76,115,1,1
64.79167,-16124,-280,1676,-2160,-177,318,1,1
64.84144,-16256,-188,1692,-2128,-151,283,1,1
64.84144,-16456,-264,1656,-2160,-43,163,1,1
64.8912,-16144,-404,1848,-2144,-69,231,1,1
64.92438,-16080,-240,1624,-2144,-170,341,1,1
64.92438,-16440,-240,1908,-2128,-97,216,1,1
64.97414,-16364,-340,1864,-2160,-133,199,1,1
65.0239,-16372,-232,1656,-2128,-135,211,1,1
65.0239,-16544,-224,1692,-2128,-132,166,1,1
65.05708,-16500,-328,1616,-2112,-92,215,1,1
65.10684,-16444,-232,1728,-2160,-37,83,1,1
65.10684,-16380,-248,1564,-2112,-128,308,1,1
65.1566,-16456,-252,1676,-2128,-45,161,1,1
65.20637,-16216,-92,1696,-2112,-61,197,1,1
65.23954,-16420,-256,1620,-2128,-20,185,1,1
65.25613,-16320,-312,1740,-2112,-86,137,1,1
65.2893,-16372,-168,1680,-2144,-101,171,1,1
65.33904,-16472,-388,1820,-2112,-19,129,1,1
65.37224,-16448,-296,1588,-2112,-94,182,1,1
65.37224,-16276,-208,1552,-2160,-94,152,1,1
65.422,-16224,-308,1716,-2160,-73,174,1,1
65.47176,-16256,-272,1824,-2144,-118,148,1,1
65.47176,-16432,-268,1792,-2128,-137,160,1,1
65.52153,-16408,-300,1744,-2144,-92,99,1,1
65.55471,-16420,-312,1520,-2160,-89,152,1,1
65.5713,-16496,-236,1780,-2128,-118,156,1,1
65.60447,-16284,-380,1764,-2128,-15,115,1,1
65.65424,-16376,-368,1796,-2144,-108,197,1,1
65.65424,-16436,-292,1688,-2144,-83,278,1,1
65.70399,-16600,-468,1720,-2128,-85,208,1,1
65.73717,-16504,-232,1756,-2096,-4,90,1,1
65.86987,-16184,-228,1820,-2112,-70,211,1,1
65.86987,-16372,-288,1580,-2128,-93,133,1,1
65.91963,-16224,-280,1708,-2144,-109,119,1,1
65.9694,-16408,-328,1720,-2144,-94,114,1,1
65.9694,-16476,-348,1700,-2144,-121,166,1,1
66.00258,-16568,-332,1828,-2128,-78,152,1,1
66.01917,-16504,-360,1812,-2144,-39,160,1,1
66.05234,-16180,-296,1720,-2144,-62,189,1,1
66.05234,-16612,-324,1540,-2096,-85,243,1,1
66.1021,-16648,-332,1880,-2176,-64,152,1,1
66.15186,-16500,-452,1728,-2144,-111,192,1,1
66.15186,-16516,-280,1576,-2128,-70,119,1,1
66.18504,-16420,-340,1660,-2128,-47,162,1,1
66.18504,-16320,-268,1648,-2144,-78,168,1,1
66.2348,-16564,-356,1752,-2128,-60,166,1,1
66.2348,-16264,-412,1860,-2144,-65,-32,1,1
66.28456,-16156,-208,1600,-2128,-109,229,1,1
66.31774,-16420,-364,1616,-2128,-127,114,1,1
66.41727,-16464,-360,1584,-2144,-92,112,1,1
66.45045,-16252,-256,1668,-2128,-120,139,1,1
66.45045,-16392,-328,1788,-2112,-92,95,1,1
66.5168,-16316,-364,1652,-2144,-122,193,1,1
66.5168,-16392,-204,1752,-2128,-59,83,1,1
66.54997,-16308,-344,1688,-2112,-95,123,1,1
66.59974,-16508,-456,1816,-2160,-82,175,1,1
66.59974,-16136,-240,1820,-2128,-120,221,1,1
66.68268,-16572,-236,1612,-2112,-160,216,1,1
66.68268,-16416,-120,1672,-2144,-3,63,1,1
66.73244,-16364,-312,1852,-2112,-62,235,1,1
66.73244,-16620,-328,1604,-2128,-89,226,1,1
66.7822,-16396,-352,1764,-2112,-67,122,1,1
66.7822,-16188,-240,1588,-2144,-102,176,0,1
66.81538,-16464,-304,1648,-2160,-117,122,0,1
66.81538,-16500,-288,1680,-2096,-131,216,0,1
66.86514,-16416,-220,1776,-2144,-59,126,0,1
66.91491,-16096,-292,1772,-2112,-79,188,0,1
66.91491,-16232,-304,1572,-2128,-137,238,0,1
66.94808,-16536,-240,1532,-2144,-67,155,0,1
66.94808,-16184,-260,1848,-2144,-85,216,0,1
66.99785,-16300,-336,1516,-2112,-44,141,0,1
67.04761,-16460,-428,1804,-2144,-97,113,0,1
67.09737,-16316,-252,1672,-2112,-88,148,0,1
67.09737,-16124,-316,1764,-2144,-83,179,0,1
67.13055,-16168,-304,1644,-2144,-109,124,0,1
67.18031,-16240,-364,1620,-2128,-94,149,0,1
67.18031,-16348,-280,1844,-2112,-92,191,0,1
67.23007,-16200,-220,1584,-2160,-104,123,0,1
67.26325,-16704,-308,1684,-2128,-115,223,0,1
67.31301,-16320,-412,1808,-2128,-119,199,0,1
67.3296,-16468,-276,1588,-2128,-114,78,0,1
67.34618,-16452,-276,1696,-2096,-80,114,0,1
67.39595,-16156,-192,1588,-2144,-90,160,0,1
67.39595,-16260,-236,1564,-2112,-49,208,0,1
67.44572,-16416,-384,1756,-2128,-83,189,0,1
67.49548,-16448,-324,1888,-2112,-108,256,0,1
67.54524,-16492,-424,1556,-2128,-95,284,0,1
67.54524,-16408,-292,1632,-2112,-21,166,0,1
67.57841,-16424,-456,1756,-2112,-135,314,0,0
67.62817,-16156,-232,1712,-2096,-171,447,0,0
67.62817,-16252,-360,1820,-2128,-385,1212,0,0
67.67794,-16448,-344,1744,-2128,-542,2112,0,0
67.71111,-16704,-560,1352,-2128,-794,1989,0,0
67.7277,-16652,-716,1632,-2128,-1194,2673,0,0
67.77747,-16112,320,692,-2112,-863,1516,0,0
67.81064,-16072,108,624,-2112,-268,347,0,0
67.81064,-16188,-284,1332,-2096,-309,150,0,0
67.8604,-16848,-92,1040,-2144,-399,392,0,0
67.89358,-16584,-148,1076,-2128,-548,752,0,0
67.89358,-16396,-16,828,-2112,-662,952,0,0
67.94334,-16692,56,788,-2128,-571,547,0,0
67.9931,-16620,120,708,-2112,-311,224,0,0
68.02628,-16436,-104,856,-2144,-331,326,0,0
68.02628,-16264,168,908,-2144,-519,691,0,0
68.07604,-16516,140,688,-2112,-478,466,0,0
68.12581,-16168,252,924,-2112,-362,331,0,0
68.12581,-16268,164,588,-2160,-411,444,0,0
68.15898,-16404,380,488,-2128,-351,425,0,0
68.20875,-16496,100,896,-2112,-283,206,0,0
68.22533,-16476,96,900,-2112,-387,366,0,0
68.25851,-16720,252,920,-2128,-510,665,0,0
68.30776,-16364,268,348,-2144,-351,360,0,0
68.34093,-16544,424,420,-2112,-350,591,0,0
68.35747,-16680,228,604,-2128,-194,214,0,0
68.39063,-16340,404,584,-2096,-276,380,0,0
68.44035,-16552,332,528,-2128,-109,253,0,0
68.44035,-16640,104,772,-2112,-212,489,0,0
68.49007,-16508,352,564,-2112,-361,607,0,0
68.52323,-16264,340,452,-2112,-301,555,0,0
68.52323,-16444,228,624,-2112,-208,563,0,0
68.57296,-16416,300,452,-2160,-178,386,0,0
68.62269,-16472,24,712,-2096,-219,603,0,0
68.62269,-16524,212,424,-2128,-326,847,0,0
68.67242,-16532,468,120,-2112,-247,609,0,0
68.7553,-16460,468,156,-2096,-65,425,0,0
68.7553,-16560,244,460,-2096,-44,377,0,0
68.80503,-16416,176,176,-2112,-75,290,0,0
68.80503,-16704,136,188,-2128,-95,301,0,0
68.85476,-16672,320,264,-2144,-82,241,0,0
68.88791,-16488,300,620,-2144,-122,203,0,0
68.88791,-16596,180,352,-2112,-199,315,0,0
68.93764,-16640,288,276,-2112,-289,316,0,0
68.93764,-16344,364,260,-2112,-217,447,0,0
68.98737,-16688,300,224,-2128,-70,212,0,0
69.02052,-16568,336,224,-2112,-216,339,0,0
69.0371,-16336,280,356,-2128,-197,297,0,0
69.07025,-16644,340,208,-2128,-230,387,0,0
69.11999,-16412,344,260,-2096,-270,447,0,0
69.11999,-16412,292,420,-2096,-232,693,0,0
69.16971,-16492,340,244,-2112,-211,668,0,0
69.20287,-16444,456,76,-2112,-219,576,0,0
69.20287,-16828,308,-40,-2128,-200,600,0,0
69.25259,-16680,344,-172,-2096,-110,480,0,0
69.28574,-16284,512,-24,-2112,-117,475,0,0
69.3852,-16468,288,-192,-2112,-150,234,0,0
69.40178,-16692,412,184,-2096,-140,285,0,0
69.43494,-16344,360,184,-2096,-209,252,0,0
69.43494,-16764,416,32,-2096,-237,313,0,0
69.48466,-16656,396,124,-2096,-170,268,0,0
69.48466,-16732,400,-52,-2128,-172,329,0,0
69.51781,-16360,520,12,-2112,-211,356,0,0
69.56796,-16648,408,96,-2080,-223,444,0,0
69.56796,-16680,432,104,-2128,-133,409,0,0
69.61768,-16600,280,-152,-2128,-266,460,0,0
69.65086,-16420,460,-100,-2128,-241,353,0,0
69.65086,-16344,680,-136,-2112,-285,426,0,0
69.7006,-16744,452,-140,-2112,-225,514,0,0
69.75034,-16352,556,-228,-2128,-184,349,0,0
69.75034,-16524,552,-248,-2096,-237,469,0,0
69.78351,-16264,508,188,-2112,-832,1726,0,0
69.83325,-16708,680,-324,-2096,-886,1630,0,0
69.83325,-16504,944,-724,-2112,-798,1205,0,0
69.883,-16432,872,-676,-2096,-149,255,0,0
69.91616,-16404,692,-384,-2128,-149,419,0,0
69.9659,-16280,544,-336,-2128,-223,537,0,0
69.9659,-16604,544,-596,-2096,-245,412,0,0
70.01565,-16520,624,-560,-2112,-153,230,0,0
70.06539,-16280,680,-428,-2128,-121,225,0,0
70.06539,-16576,624,-396,-2064,-163,205,0,0
70.11514,-16612,672,-704,-2128,-308,337,0,0
70.1483,-16712,620,-460,-2144,-125,89,0,0
70.19804,-16396,612,-380,-2112,-280,296,0,0
70.19804,-16656,576,-540,-2144,-216,404,0,0
70.24779,-16584,852,-728,-2128,17,286,0,0
70.28094,-16232,796,-644,-2080,150,224,0,0
70.28094,-16364,772,-552,-2144,266,133,0,0
70.33069,-16380,648,-576,-2112,57,351,0,0
70.4136,-16580,556,-576,-2112,-82,345,0,0
70.43018,-16476,712,-528,-2112,-113,296,0,0
70.46334,-16712,676,-616,-2128,-193,292,0,0
70.46334,-16648,792,-624,-2128,-243,300,0,0
70.51308,-16432,816,-460,-2096,-232,333,0,0
70.59599,-16516,740,-552,-2096,-312,336,0,0
70.59599,-16324,828,-592,-2096,-323,323,0,0
70.64574,-16648,632,-476,-2096,-357,428,0,0
70.64574,-16420,744,-684,-2096,-527,558,0,0
70.69548,-16488,796,-876,-2080,-424,509,0,0
70.69548,-16788,700,-868,-2128,-212,280,0,0
70.74522,-16636,596,-664,-2112,-235,397,0,0
70.77838,-16680,664,-804,-2128,-270,348,0,0
70.77838,-16760,808,-780,-2096,-273,512,0,0
70.82813,-16668,792,-972,-2096,-205,523,0,0
70.82813,-16360,900,-864,-2128,-142,437,0,0
70.87788,-16600,644,-468,-2128,-467,1290,0,0
70.91103,-16400,532,-1392,-2096,-506,1192,0,0
70.91103,-16528,884,-1012,-2096,-251,514,0,0
70.96078,-16636,840,-928,-2096,-262,351,0,0
71.01052,-16380,932,-936,-2128,-343,654,0,0
71.01052,-16380,996,-1172,-2096,-261,469,0,0
71.06021,-16400,1004,-1040,-2128,-144,352,0,0
71.09342,-16528,792,-1080,-2096,-142,356,0,0
71.14317,-16456,932,-1176,-2096,-126,475,0,0
71.14317,-16600,912,-1196,-2096,-55,259,0,0
71.19292,-16528,1080,-1004,-2144,36,368,0,0
71.22607,-16704,928,-1136,-2096,19,621,0,0
71.24266,-16684,852,-1396,-2128,132,594,0,0
71.2924,-16188,1036,-1000,-2112,2,704,0,0
71.32557,-16520,896,-1540,-2112,-188,339,0,0
71.35873,-16624,800,-1256,-2112,-290,234,0,0
71.37531,-16484,1012,-1324,-2128,-466,195,0,0
71.40848,-16556,1072,-1348,-2096,-353,318,0,0
71.45821,-16512,1024,-1308,-2080,-21,181,0,0
71.45821,-16352,1068,-1244,-2112,118,233,0,0
71.50796,-16332,1072,-1360,-2080,44,337,0,0
71.54152,-16384,1016,-1404,-2080,18,263,0,0
71.54152,-16536,952,-1212,-2112,-79,86,0,0
71.59132,-16428,1100,-1252,-2128,-147,198,0,0
71.64109,-16532,1020,-1212,-2112,-141,101,0,0
71.67427,-16556,1068,-1220,-2080,-255,207,0,0
71.69086,-16580,1048,-1528,-2096,-191,156,0,0
71.72404,-16300,1096,-1168,-2112,-208,164,0,0
71.77382,-16564,1048,-1436,-2096,-162,200,0,0
71.807,-16404,948,-1260,-2080,-113,211,0,0
71.82359,-16408,1156,-1284,-2096,-117,208,0,0
71.84011,-16224,1148,-1436,-2128,-64,208,0,0
71.90654,-16380,976,-1248,-2080,-82,227,0,0
71.90654,-16672,832,-1048,-2096,-147,296,0,0
71.95631,-16404,1400,-1516,-2096,-208,801,0,0
71.9895,-16432,1192,-1360,-2112,-64,392,0,0
72.03928,-16512,1032,-1356,-2112,18,215,0,0
72.03928,-16416,1184,-1248,-2128,-52,378,0,0
72.08905,-16364,1260,-1412,-2080,-2,257,0,0
72.12223,-16336,1240,-1452,-2064,-38,160,0,0
72.12223,-16632,1008,-1404,-2096,-73,149,0,0
72.172,-16268,1176,-1480,-2112,-137,192,0,0
72.22178,-16592,1108,-1436,-2096,-83,138,0,0
72.22178,-16144,1276,-1364,-2112,-104,152,0,0
72.27155,-16524,1260,-1404,-2080,-57,79,0,0
72.30473,-16720,1060,-1420,-2112,-129,209,0,0
72.3545,-16612,1120,-1492,-2080,-75,170,0,0
72.3545,-16608,1096,-1380,-2112,-64,130,0,0
72.40427,-16640,1068,-1472,-2080,-56,159,0,0
72.43745,-16620,1044,-1448,-2096,-96,202,0,0
72.45405,-16224,1204,-1404,-2096,-93,198,0,0
72.48723,-16628,1176,-1508,-2064,-75,163,0,0
72.537,-16272,1252,-1480,-2144,-60,152,0,0
72.537,-16256,1208,-1456,-2096,-28,220,0,0
72.58678,-16256,1304,-1364,-2096,-68,164,0,0
72.61996,-16592,1044,-1528,-2112,-96,103,0,0
72.66973,-16432,1148,-1332,-2096,-174,-13,0,0
72.66973,-16536,1056,-1192,-2128,-123,-48,0,0
72.71951,-16740,1072,-1528,-2096,-109,73,0,0
72.76928,-16492,1100,-1420,-2112,-36,151,0,0
72.80246,-16336,1236,-1332,-2096,-2,151,0,0
72.80246,-16716,984,-1464,-2112,-24,106,0,0
72.85223,-16344,1200,-1356,-2096,-51,181,0,0
72.902,-16668,1072,-1324,-2096,-102,152,0,0
72.93519,-16248,1164,-1160,-2096,-73,152,0,0
72.93519,-16516,1152,-1380,-2096,-107,160,0,0
72.98495,-16252,1140,-1268,-2048,-54,150,0,0
73.03473,-16672,1092,-1236,-2080,-111,194,0,0
73.03473,-16516,1152,-1240,-2112,-79,118,0,0
73.08451,-16468,1224,-1432,-2064,-71,139,0,0
73.11769,-16584,1036,-1296,-2080,-87,141,0,0
73.16747,-16380,1216,-1296,-2080,-162,140,0,0
73.16747,-16308,1204,-1324,-2112,-65,111,0,0
73.20065,-16372,1212,-1356,-2064,-83,148,0,0
73.25042,-16388,1116,-1304,-2128,-9,106,0,0
73.25042,-16356,1192,-1336,-2080,-10,138,0,0
73.30019,-16568,1056,-1552,-2112,6,160,0,0
73.34997,-16376,1172,-1388,-2112,-54,131,0,0
73.34997,-16604,1148,-1368,-2080,-121,171,0,0
73.39973,-16332,1336,-1376,-2128,-88,177,0,0
73.43291,-16596,1092,-1396,-2080,-69,151,0,0
73.48269,-16668,1100,-1224,-2080,-124,163,0,0
73.48269,-16688,1060,-1448,-2112,18,88,0,0
73.53246,-16404,1252,-1316,-2096,-55,203,0,0
73.56564,-16420,1112,-1328,-2080,-70,133,0,0
73.56564,-16288,996,-1284,-2112,-138,197,0,0
73.61542,-16444,1068,-1480,-2080,-133,223,0,0
73.64861,-16388,1184,-1208,-2080,-42,222,0,0
73.66519,-16668,1036,-1420,-2096,-4,185,0,0
73.71497,-16476,988,-1476,-2096,-41,224,0,0
73.74815,-16212,1160,-1324,-2080,-49,186,0,0
73.79792,-16424,1096,-1472,-2128,-102,184,0,0
73.79792,-16484,1064,-1368,-2096,-86,109,0,0
73.8477,-16432,1096,-1308,-2112,-151,121,0,0
73.88088,-16560,1080,-1432,-2096,-82,117,0,0
73.93066,-16608,1056,-1488,-2112,-108,128,0,0
73.93066,-16344,1200,-1472,-2112,-103,138,0,0
73.98043,-16432,1180,-1500,-2048,-82,135,0,0
73.98043,-16424,1152,-1260,-2080,-47,135,0,0
74.0302,-16484,1268,-1344,-2112,-27,203,0,0
74.06339,-16252,1176,-1360,-2064,16,147,0,0
74.11315,-16284,1136,-1300,-2096,-30,183,0,0
74.11315,-16484,1112,-1456,-2112,-29,141,0,0
74.16293,-16396,1200,-1460,-2096,-105,115,0,0
74.19611,-16424,1184,-1336,-2112,-120,119,0,0
74.24588,-16692,976,-1400,-2112,-97,101,0,0
74.24588,-16628,1064,-1384,-2080,-122,137,0,0
74.29565,-16360,1268,-1292,-2096,-37,120,0,0
74.34542,-16500,1188,-1072,-2112,-78,113,0,0
74.34542,-16572,1040,-1388,-2080,-62,154,0,0
74.37861,-16636,1108,-1480,-2080,-20,186,0,0
74.42838,-16516,1224,-1376,-2080,-27,181,1,0
74.46156,-16404,1232,-1376,-2096,3,180,1,0
74.47816,-16684,1008,-1304,-2064,-30,170,1,0
74.51134,-16292,1252,-1364,-2096,-47,262,1,0
74.56111,-16316,1168,-1316,-2064,-36,192,1,0
74.61089,-16464,1156,-1220,-2112,3,104,1,0
74.61089,-16552,1048,-1324,-2096,-43,148,1,0
74.64407,-16452,1140,-1472,-2096,2,29,1,0
74.69384,-16556,1004,-1508,-2112,-70,68,1,0
74.69384,-16744,1080,-1240,-2128,-52,43,1,0
74.74361,-16300,1188,-1324,-2112,52,-10,1,0
74.79339,-16288,1172,-1260,-2096,34,-128,1,0
74.82657,-16540,972,-1244,-2096,110,-75,1,0
74.82657,-16472,1100,-1156,-2080,78,63,1,0
74.87634,-16316,1184,-1144,-2064,79,124,1,0
74.92611,-16292,1056,-1092,-2080,68,192,1,0
74.92611,-16628,836,-1236,-2112,28,116,1,0
74.9593,-16324,1100,-1276,-2096,-14,79,1,0
75.00906,-16468,1048,-1376,-2080,26,-95,1,0
75.00906,-16304,1200,-1396,-2128,108,-339,1,0
75.05884,-16292,1220,-1396,-2080,94,-944,0,0
75.09202,-16528,988,-940,-2112,152,-791,0,0
75.10861,-16532,592,-760,-2128,190,-463,0,0
75.14179,-16684,864,-1100,-2096,23,-142,0,0
75.19157,-16524,744,-868,-2096,-110,-382,0,0
75.24134,-16244,1076,-1152,-2096,88,-354,0,0
75.24134,-16348,948,-956,-2080,83,-476,0,0
75.27452,-16792,708,-940,-2064,118,-517,0,0
75.3243,-16588,760,-908,-2112,87,-403,0,0
75.3243,-16760,704,-604,-2080,117,-233,0,0
75.37407,-16732,460,-656,-2096,-66,-201,0,0
75.40726,-16652,736,-848,-2080,-71,-182,0,0
75.45702,-16748,768,-700,-2080,5,-176,0,0
75.45702,-16576,876,-828,-2064,176,-367,0,0
75.5068,-16584,784,-672,-2096,157,-622,0,0
75.55657,-16336,840,-568,-2080,194,-657,0,0
75.55657,-16696,604,-624,-2080,173,-571,0,0
75.60635,-16468,584,-516,-2080,162,-665,0,0
75.63953,-16776,564,-68,-2112,76,-466,0,0
75.67271,-16388,664,-520,-2080,82,-431,0,0
75.6893,-16332,624,-444,-2112,162,-731,0,0
75.73907,-16352,524,-236,-2096,216,-944,0,0
75.77225,-16448,556,-228,-2080,270,-762,0,0
75.77225,-16296,656,-108,-2112,299,-718,0,0
75.82203,-16580,348,168,-2064,182,-744,0,0
75.8718,-16880,384,20,-2080,220,-709,0,0
75.90498,-16208,504,216,-2064,171,-550,0,0
75.92157,-16320,420,324,-2096,57,-379,0,0
75.95475,-16456,528,72,-2080,49,-361,0,0
76.00452,-16644,468,-8,-2096,229,-446,0,0
76.00452,-16600,360,184,-2048,344,-448,0,0
76.03771,-16156,556,256,-2080,277,-552,0,0
76.08748,-16592,388,448,-2096,185,-467,0,0
76.13725,-16704,336,264,-2096,112,-454,0,0
76.13725,-16448,472,432,-2080,218,-758,0,0
76.17044,-16172,388,560,-2096,101,-712,0,0
76.18703,-16296,344,676,-2080,15,-491,0,0
76.2368,-16464,412,420,-2064,170,-606,0,0
76.26998,-16164,496,484,-2080,249,-546,0,0
76.28658,-16452,244,948,-2080,196,-597,0,0
76.31976,-16452,464,1052,-2096,187,-449,0,0
76.36953,-16248,400,632,-2080,298,-409,0,0
76.36953,-16444,284,836,-2048,302,-500,0,0
76.40271,-16564,364,692,-2080,316,-436,0,0
76.45248,-16456,348,904,-2096,333,-521,0,0
76.45248,-16268,456,1140,-2080,289,-466,0,0
76.50225,-16248,432,832,-2064,344,-584,0,0
76.53543,-16432,56,1024,-2064,329,-457,0,0
76.58521,-16356,252,892,-2064,320,-404,0,0
76.58521,-16180,112,1264,-2064,157,-385,0,0
76.63498,-16496,-84,1256,-2096,122,-312,1,0
76.66817,-16676,144,1220,-2064,42,-278,1,0
76.68475,-16464,428,948,-2096,239,-308,1,0
76.71793,-16420,92,1200,-2064,406,-543,1,0
76.76771,-16128,112,1264,-2080,467,-553,1,0
76.80089,-16428,192,1076,-2064,431,-453,1,0
76.81748,-16348,216,1128,-2080,612,-716,1,0
76.85066,-16116,140,1812,-2080,407,-519,1,0
76.90044,-16240,188,1436,-2080,336,-219,1,0
76.90044,-16376,-4,1432,-2080,506,-519,1,0
76.95021,-16592,36,1728,-2064,326,-412,1,0
76.99998,-16284,20,1708,-2080,92,29,1,0
77.03316,-16652,-4,1588,-2096,141,-79,1,0
77.03316,-16352,-68,1548,-2048,256,-62,1,0
77.08293,-16504,-312,1788,-2096,184,-161,1,0
77.13271,-16320,36,1668,-2064,91,-52,1,0
77.13271,-16704,-28,1840,-2064,131,-83,1,0
77.16589,-16508,-144,1860,-2064,44,-96,1,0
77.21567,-16392,72,1624,-2080,35,-53,1,0
77.21567,-16272,4,1832,-2080,77,-15,1,0
77.26544,-16404,-48,1816,-2048,13,16,1,0
77.29862,-16524,-16,1668,-2096,-28,33,1,0
77.31521,-16688,-64,1860,-2112,40,31,1,0
77.3484,-16484,56,1796,-2064,176,-133,1,0
77.39817,-15992,-200,1960,-2080,-30,116,1,0
77.39817,-16068,32,1800,-2096,-49,75,1,0
77.44794,-16196,68,1828,-2096,32,7,1,0
77.48112,-16332,-156,1840,-2080,31,3,1,0
77.49772,-16556,-160,1952,-2064,-13,206,1,0
77.5309,-16612,-56,1728,-2112,-51,170,1,0
77.58067,-16484,-64,1668,-2064,28,79,1,0
77.61359,-16324,-108,1820,-2064,-102,276,1,0
77.61359,-16240,-116,1952,-2064,-30,153,1,0
77.66363,-16252,-96,1912,-2080,-83,194,1,0
77.7134,-16260,56,1632,-2128,-136,234,1,0
77.7134,-16276,100,1788,-2096,-69,142,1,0
77.76318,-16240,-36,1796,-2080,-151,223,1,0
77.79636,-16528,52,2100,-2064,-124,207,1,0
77.84613,-16560,-40,1760,-2080,-136,302,1,0
77.84613,-16572,-108,1596,-2096,-26,156,1,0
77.8959,-16448,-180,1996,-2064,-39,132,1,0
77.92908,-16284,-8,1612,-2080,-141,347,1,0
77.94568,-16508,-40,1660,-2064,-21,156,1,0
77.97886,-16292,12,1604,-2112,-68,176,1,0
78.02863,-16464,-216,1828,-2096,-13,135,1,0
78.07841,-16072,-32,1824,-2064,-168,223,1,0
78.07841,-16404,52,1772,-2048,-101,133,1,0
78.11159,-16568,-232,1872,-2064,-63,132,1,0
78.16136,-16392,84,1768,-2080,-113,246,1,0
78.16136,-16468,16,1804,-2080,-42,159,1,0
78.21114,-16376,-76,1796,-2064,-54,154,1,0
78.24432,-16404,-72,1844,-2096,-116,273,1,0
78.26091,-16296,-64,1540,-2032,-113,307,1,0
78.29409,-16240,-92,1884,-2048,-36,113,1,0
78.34386,-16536,-20,1648,-2080,-151,267,1,0
78.37704,-16412,-136,1696,-2064,-91,174,1,0
78.42681,-16556,-88,1696,-2064,-85,198,1,0
78.42681,-16288,56,1764,-2048,-64,163,1,0
78.47659,-16428,-24,1892,-2080,-90,262,1,0
78.47659,-16496,-52,1812,-2064,-25,150,1,0
78.52636,-16124,0,1816,-2080,-104,251,1,0
78.55954,-16276,-104,1736,-2032,-47,130,1,1
78.60931,-16136,-68,1776,-2064,-102,212,1,1
78.60931,-16124,52,1616,-2048,-31,124,1,1
78.65909,-16324,-124,1828,-2080,-127,168,1,1
78.69228,-16656,16,1604,-2032,-62,30,1,1
78.69228,-16392,-108,1772,-2032,-34,51,1,1
78.74204,-16496,-128,1736,-2080,-107,126,1,1
78.79182,-16384,168,1744,-2080,-57,183,1,1
78.79182,-16592,-124,1716,-2096,-4,132,1,1
78.84159,-16192,-48,2096,-2080,-59,102,1,1
78.87477,-16548,32,1820,-2096,-28,154,1,1
78.87477,-16132,-84,1908,-2080,-52,231,1,1
78.92455,-16396,-76,1816,-2048,21,158,1,1
78.97432,-16476,-300,1840,-2064,-190,290,1,1
79.0075,-16380,136,1612,-2064,-16,94,1,1
79.02409,-16248,-140,1856,-2064,-92,174,1,1
79.05727,-16452,-76,1860,-2080,-155,224,1,1
79.10704,-16292,8,1780,-2064,-37,66,1,1
79.10704,-16236,-52,1868,-2080,-38,144,1,1
79.15681,-16268,-76,1956,-2080,-90,156,1,1
79.18999,-16656,-24,1728,-2048,-60,178,1,1
79.20658,-16540,-156,1732,-2064,-72,160,1,1
79.22318,-16540,-128,1760,-2064,-89,175,1,1
79.28954,-16468,-36,1884,-2064,-73,175,1,1
79.32272,-16216,-72,1636,-2080,-139,258,1,1
79.33932,-16496,-40,1744,-2080,-84,157,1,1
79.3725,-16476,-220,1864,-2080,-91,106,1,1
79.42227,-16304,-12,1812,-2064,-97,147,1,1
79.42227,-16236,-12,1808,-2080,-50,116,1,1
79.47205,-16372,-56,1848,-2064,-109,237,1,1
79.50523,-16224,44,1812,-2080,-58,154,1,1
79.55499,-16528,-88,1708,-2080,-125,207,1,1
79.55499,-16672,88,1920,-2080,-8,50,1,1
79.58817,-16376,-20,1880,-2016,-78,188,1,1
79.63795,-16324,-60,1768,-2080,-47,161,1,1
79.63795,-16600,88,1652,-2064,-73,206,1,1
79.68722,-16532,-60,1680,-2064,-45,191,1,1
79.7204,-16384,-276,1796,-2064,-93,168,1,1
79.7204,-16532,-8,1712,-2064,-108,133,1,1
79.78671,-16596,-92,1696,-2064,-46,220,1,1
79.83646,-16448,-216,1848,-2048,-108,277,1,1
79.85305,-16412,56,1628,-2080,-122,270,1,1
79.86964,-16548,-136,1732,-2080,-45,182,1,1
79.91939,-16320,72,1852,-2048,-111,266,1,1
79.95256,-16372,-128,1508,-2064,-73,141,1,1
79.95256,-16232,-128,1788,-2080,-82,247,1,1
80.00231,-16568,-72,1860,-2048,-129,287,1,1
80.05207,-16192,128,1836,-2080,-112,293,1,1
80.05207,-16524,-148,1800,-2048,-82,210,1,1
80.10182,-16580,-156,1760,-2080,-111,297,1,1
80.13499,-16428,40,1536,-2032,-90,259,1,1
80.15157,-16328,-136,1780,-2048,-70,231,1,1
80.18475,-16180,28,1980,-2080,-188,368,1,1
80.2345,-16404,-72,1640,-2064,-265,487,1,1
80.2345,-16560,28,1416,-2064,-167,248,1,1
80.28425,-16092,-68,1764,-2048,-157,188,1,1
80.31742,-16176,-4,1628,-2080,-182,311,1,1
80.36717,-16476,-88,1496,-2064,-175,310,1,1
80.36717,-16468,220,1656,-2048,-36,184,1,1
80.40002,-16260,-20,1708,-2048,-124,316,1,1
80.4501,-16228,20,1468,-2048,-198,379,1,1
80.49986,-16584,-8,1732,-2080,-222,430,1,0
80.49986,-16344,84,1660,-2112,-290,624,1,0
80.53302,-16380,-260,1808,-2080,-503,511,1,0
80.58277,-16244,28,1320,-2080,-189,321,1,0
80.61594,-16448,28,1756,-2096,-319,573,1,0
80.63253,-16508,16,1604,-2080,-387,818,1,0
80.68228,-16200,156,1636,-2080,-290,385,1,0
80.68228,-16504,-80,1928,-2048,-504,801,1,0
80.71545,-16540,-112,1556,-2048,-976,1049,1,0
80.76521,-16672,420,460,-2080,-834,1001,1,0
80.76521,-16224,320,864,-2048,-467,607,1,0
80.81477,-16240,116,1304,-2048,-377,453,1,0
80.86472,-16584,36,1432,-2032,-536,747,1,0
80.89789,-16688,288,896,-2080,-404,602,1,0
80.91447,-16312,76,848,-2064,-288,404,1,0
80.94764,-16456,-216,1212,-2064,-391,358,1,0
80.98081,-16592,-44,1404,-2080,-632,746,1,0
80.99739,-16708,276,1184,-2080,-674,851,1,0
81.04714,-16328,212,892,-2080,-516,798,1,0
81.08031,-16384,264,996,-2080,-206,533,1,0
81.08031,-16372,392,964,-2048,-294,797,1,0
81.13007,-16480,296,1084,-2080,-306,927,1,0
81.14665,-16600,308,704,-2080,-228,590,1,0
81.16324,-16272,296,900,-2064,-279,593,1,0
81.21299,-16460,136,804,-2080,-430,524,1,0
81.26274,-16716,364,440,-2032,-358,752,1,0
81.27933,-16288,288,852,-2112,-281,520,1,0
81.31249,-16268,324,880,-2064,-429,723,1,0
81.36225,-16712,308,776,-2048,-518,845,1,0
81.39542,-16476,536,432,-2064,-416,987,1,0
81.39542,-16584,492,460,-2080,-55,513,1,0
81.44518,-16472,376,540,-2080,-88,660,1,0
81.49493,-16704,284,580,-2048,-197,1001,1,0
81.49493,-16464,780,236,-2048,-142,990,1,0
81.54468,-16652,336,388,-2080,62,257,1,0
81.57785,-16516,396,580,-2064,-184,356,1,0
81.57785,-16600,388,392,-2048,-358,601,1,0
81.6276,-16172,460,248,-2016,-280,438,1,0
81.66077,-16384,588,408,-2064,-326,514,1,0
81.71088,-16664,428,396,-2016,-306,509,1,0
81.71088,-16604,520,264,-2048,-213,668,1,0
81.76065,-16172,556,296,-2080,-75,393,1,0
81.81042,-16604,404,364,-2080,-7,283,1,0
81.81042,-16400,316,528,-2080,-236,620,1,0
81.8436,-16896,700,-84,-2080,-245,839,1,0
81.87659,-16344,568,224,-2064,-114,547,1,0
81.89336,-16180,548,164,-2096,-274,555,1,0
81.94312,-16336,680,0,-2064,-201,518,1,0
81.9763,-16684,512,-68,-2064,-196,410,1,0
81.99289,-16516,580,-64,-2048,-216,500,1,0
82.02607,-16284,532,272,-2048,-290,469,1,0
82.07584,-16560,420,40,-2064,-515,898,1,0
82.1256,-16936,736,-340,-2080,-408,623,1,0
82.1256,-16716,492,-8,-2064,-144,422,1,0
82.15878,-16488,424,76,-2064,-341,982,1,0
82.20854,-16200,692,-300,-2048,-370,1202,1,0
82.20854,-16568,704,-124,-2032,-435,962,1,0
82.2583,-16360,696,-140,-2064,-573,1143,1,0
82.30807,-16716,648,-120,-2048,-755,1106,1,0
82.30807,-16600,636,-124,-2048,-944,1495,1,0
82.34125,-16628,816,-440,-2048,-1300,1852,1,0
82.39101,-16376,1272,-1264,-2032,-891,1359,1,0
82.44078,-16304,1264,-940,-2048,-412,986,1,0
82.44078,-16412,1000,-696,-2032,-395,1488,1,0
82.47395,-16336,1068,-1144,-2096,-362,1055,1,0
82.52372,-16672,1000,-800,-2080,-401,1206,1,0
82.52372,-16248,1208,-1204,-2048,-497,1297,1,0
82.57349,-16588,1272,-1184,-2064,-306,840,1,0
82.62325,-16420,988,-968,-2048,-263,621,0,0
82.63984,-16504,1140,-828,-2048,-595,1462,0,0
82.65643,-16524,1068,-1036,-2080,-621,1638,0,0
82.70619,-16176,1496,-1488,-2064,-447,894,0,0
82.72278,-16692,1324,-1344,-2016,-417,995,0,0
82.78914,-16404,1452,-1620,-2048,-294,1023,0,0
82.80573,-16624,1340,-1580,-2048,-294,1064,0,0
82.82231,-16488,1400,-1672,-2080,-281,831,0,0
82.88866,-16552,1356,-1696,-2048,-243,519,0,0
82.88866,-16552,1496,-1688,-2064,-257,413,0,0
82.93843,-16524,1516,-1856,-2064,-138,256,0,0
82.97161,-16776,1404,-1332,-2064,-180,85,0,0
82.97161,-16716,1276,-1588,-2080,-237,481,0,0
83.02137,-16560,1316,-1744,-2048,-343,594,0,0
83.07114,-16156,1492,-1872,-2032,-191,556,0,0
83.07114,-16232,1344,-1688,-2064,-139,628,0,0
83.10427,-16316,1420,-1808,-2048,-178,727,0,0
83.15408,-16544,1288,-2116,-2048,-395,789,0,0
83.20384,-16588,1288,-1456,-2048,-458,1077,0,0
83.20384,-16580,1468,-2088,-2048,-520,1350,0,0
83.2536,-16404,1704,-2280,-2064,-220,912,0,0
83.28678,-16156,1560,-1948,-2048,-99,335,0,0
83.28678,-16256,1636,-2032,-2048,-138,504,0,0
83.33655,-16560,1460,-2120,-2032,-173,635,0,0
83.38631,-16144,1744,-2076,-2048,-133,325,0,0
83.41949,-16252,1644,-1936,-2048,-200,445,0,0
83.43607,-16120,1688,-2404,-2064,-214,375,0,0
83.46925,-16604,1452,-2128,-2048,-173,281,0,0
83.51902,-16316,1768,-2340,-2048,-75,195,0,0
83.56879,-16440,1568,-2064,-2048,34,194,0,0
83.56879,-16176,1620,-2196,-2048,12,184,0,0
83.60196,-16352,1580,-2204,-2048,-67,72,0,0
83.65173,-16528,1588,-2204,-2080,-124,338,0,0
83.65173,-16472,1544,-2224,-2064,-45,107,0,0
83.70149,-16200,1600,-2108,-2048,-132,48,0,0
83.73467,-16388,1572,-2304,-2032,-102,35,0,0
83.75126,-16488,1584,-2052,-2032,-22,-72,0,0
83.78444,-16504,1504,-2056,-2048,-47,114,0,0
83.83421,-16376,1632,-2068,-2048,-80,283,0,0
83.83421,-16220,1584,-2132,-2048,-65,212,0,0
83.86738,-16208,1600,-2248,-2064,-42,134,0,0
83.91714,-16228,1668,-1952,-2032,-37,149,0,0
83.96691,-16608,1580,-2240,-2048,-130,300,0,0
83.96691,-16468,1524,-2180,-2064,-19,64,0,0
84.01667,-16332,1656,-2164,-2016,100,6,0,0
84.04985,-16248,1744,-2136,-2048,-2,43,0,0
84.09962,-16456,1500,-2168,-2032,30,-9,0,0
84.09962,-16152,1604,-1964,-2048,-60,100,0,0
84.14938,-16568,1476,-2112,-2032,-136,184,0,0
84.18256,-16256,1620,-2224,-2048,-186,278,0,0
84.19915,-16300,1564,-2272,-2048,-169,137,0,0
84.23232,-16592,1500,-2232,-2048,-118,202,0,0
84.28209,-16372,1596,-2124,-2048,-30,233,0,0
84.31527,-16484,1508,-2304,-2048,52,146,0,0
84.33186,-16536,1496,-2168,-2016,36,108,0,0
84.36504,-16360,1620,-1936,-2064,-96,313,0,0
84.38162,-16432,1560,-2168,-2048,-105,107,0,0
84.41479,-16368,1556,-2024,-2016,-58,84,0,0
84.46456,-16492,1580,-2092,-2016,-83,143,0,0
84.51433,-16544,1576,-2136,-2080,-105,216,0,0
84.51433,-16400,1464,-2036,-2080,-35,96,0,0
84.54751,-16492,1452,-2140,-2016,-44,58,0,0
84.59727,-16312,1628,-2004,-2016,-42,90,0,0
84.64703,-16624,1504,-2028,-2032,-61,124,0,0
84.67631,-16288,1460,-1984,-2048,-132,107,0,0
84.67631,-16392,1552,-2072,-2032,-125,155,0,0
84.72997,-16392,1596,-2100,-2032,-45,145,0,0
84.72997,-16556,1480,-2168,-2064,0,114,0,0
84.77766,-16356,1636,-2108,-2064,45,148,0,0
84.8295,-16376,1460,-2004,-2048,14,71,0,0
84.8295,-16548,1432,-2020,-2048,30,74,0,0
84.86268,-16548,1532,-2128,-2032,1,23,0,0
84.91245,-16516,1500,-2064,-2048,-20,65,0,0
84.94563,-16328,1412,-2180,-2016,-27,41,0,0
84.96221,-16196,1536,-1984,-2064,-13,-2,0,0
84.99539,-16184,1548,-2100,-2016,27,38,0,0
85.04516,-16160,1496,-2036,-2048,-22,14,0,0
85.04516,-16316,1508,-2696,-2032,695,-816,0,0
85.09492,-16244,1628,-1512,-2032,746,-1133,0,0
85.14468,-16216,1608,-1772,-2064,276,-89,0,0
85.17786,-16176,1540,-1928,-2016,80,-287,0,1
85.17786,-16220,1492,-1864,-2048,65,-388,0,1
85.22763,-16336,1576,-1872,-2032,65,-474,0,1
85.2608,-16564,1316,-1704,-2048,325,-896,0,1
85.31057,-16268,1444,-1592,-2048,217,-948,0,1
85.32716,-16240,1376,-1724,-2000,354,-994,0,1
85.36034,-16156,1332,-1832,-2064,792,-1435,0,1
85.4101,-16252,1408,-1520,-2048,1260,-2312,0,1
85.4101,-16548,1340,-1068,-2048,1091,-2248,0,1
85.45987,-16388,1276,-984,-2048,1123,-2077,0,1
85.49304,-16388,956,-304,-2048,1352,-2420,0,1
85.50964,-16476,800,0,-2080,254,-770,0,1
85.54281,-16364,1216,-752,-2016,59,-417,0,1
85.57599,-16188,964,-628,-2032,175,-669,0,1
85.62576,-16624,852,-536,-2032,165,-844,0,1
85.64234,-16776,756,-260,-2064,119,-580,0,1
85.67551,-16584,648,-284,-2048,-124,-378,0,1
85.72527,-16220,980,-412,-2048,-33,-301,0,1
85.72527,-16336,920,-616,-2048,213,-668,0,1
85.75845,-16592,724,-436,-2064,377,-901,0,1
85.80822,-16372,400,32,-2032,353,-715,0,1
85.80822,-16436,648,-12,-2032,287,-407,0,1
85.85799,-16580,600,-52,-2000,482,-673,0,1
85.89116,-16504,416,28,-2016,430,-734,0,1
85.94093,-16684,592,-12,-2048,342,-678,0,1
85.95751,-16748,528,4,-2032,369,-760,0,1
85.99069,-16256,532,-76,-2048,761,-705,0,1
86.02387,-16280,488,492,-2032,523,-870,0,1
86.04046,-16496,256,432,-2032,264,-840,0,1
86.09023,-16752,404,408,-2032,124,-404,0,1
86.12291,-16628,548,292,-2032,328,-603,0,1
86.17268,-16392,208,468,-2016,485,-799,0,1
86.17268,-16300,76,700,-2016,256,-573,0,1
86.22243,-16344,320,572,-2048,-21,-198,0,1
86.25561,-16312,344,580,-2064,207,-348,0,1
86.25561,-16348,208,680,-2064,153,-414,0,1
86.30537,-16496,296,904,-2080,33,-382,0,1
86.35514,-16708,460,596,-2032,59,-256,0,1
86.38831,-16376,320,756,-2000,118,-360,0,1
86.4049,-16580,200,648,-2016,261,-500,0,1
86.43808,-16464,-28,956,-1984,201,-472,0,1
86.48784,-16672,156,936,-2032,65,-141,0,1
86.48784,-16528,124,840,-2048,38,-293,0,1
86.53761,-16404,188,880,-2016,137,-316,0,1
86.53761,-16532,100,788,-2032,231,-362,0,1
86.57078,-16420,68,1204,-2048,56,-230,0,1
86.62054,-16480,12,964,-2048,201,-358,0,1
86.62054,-16216,212,1144,-2048,144,-161,0,1
86.6703,-16336,240,916,-2016,139,-143,0,1
86.70348,-16620,4,952,-2064,249,-437,0,1
86.75323,-16332,128,1156,-2064,304,-401,0,1
86.75323,-16416,20,1188,-2048,398,-441,0,1
86.803,-16680,-56,1208,-2032,388,-344,0,1
86.85277,-16288,-8,1368,-2016,204,-147,0,1
86.85277,-16564,-116,1196,-2016,108,-63,0,1
86.88594,-16268,-32,1232,-2064,139,-193,0,1
86.93571,-16408,-140,1380,-2032,133,-361,0,1
86.93571,-16204,124,1316,-2032,53,-239,0,1
86.98547,-16284,-8,1416,-2000,22,-130,0,1
87.01865,-16576,-124,1332,-2032,127,-215,0,1
87.06841,-16296,4,1468,-2048,161,-226,1,1
87.06841,-16580,-136,1352,-2048,133,-204,1,1
87.11817,-16276,-112,1616,-2048,49,-116,1,1
87.15134,-16584,-112,1472,-2016,33,-226,1,1
87.16793,-16720,-16,1252,-2032,163,-304,1,1
87.20111,-16524,-176,1656,-2048,269,-358,1,1
87.25087,-16344,-504,1668,-2016,142,-241,1,1
87.28404,-16392,-148,1564,-2080,107,-257,1,1
87.30063,-16228,-52,1848,-2000,135,-177,1,1
87.3504,-16252,-216,1880,-2048,38,-77,1,1
87.38357,-16280,-80,1696,-2064,-135,100,1,1
87.38357,-16560,-80,1764,-2032,-148,112,1,1
87.43333,-16288,-12,1648,-2032,-134,115,1,1
87.48309,-16160,-60,1512,-2032,-89,47,1,1
87.51627,-16432,-100,1808,-2032,-118,93,1,1
87.51627,-16364,52,1648,-2032,-70,-1,1,1
87.56603,-16532,-200,1700,-2048,-17,28,1,1
87.61579,-16488,-200,1764,-2032,-45,13,1,1
87.61579,-16384,-80,1872,-2048,-23,-69,1,1
87.64897,-16576,-96,1864,-2032,-126,139,1,1
87.69873,-16324,-4,1636,-2048,-44,102,1,1
87.7485,-16332,56,1672,-2016,1,187,1,1
87.7485,-16344,52,1872,-2048,67,26,1,1
87.78167,-16216,28,2024,-2032,-11,226,1,1
87.83182,-16584,-116,1720,-2032,2,138,1,1
87.83182,-16300,-156,1552,-2048,-96,278,1,1
87.88158,-16720,-92,1820,-2048,37,-19,1,1
87.93133,-16448,-228,1972,-2000,-84,188,1,1
87.93133,-16460,-112,1752,-2032,-130,217,1,1
87.98109,-16532,-124,1572,-2032,-135,222,1,1
88.01427,-16268,-148,2004,-2048,-87,101,1,1
88.06402,-16532,-88,1808,-2016,-158,218,1,1
88.06402,-16608,-48,1648,-2048,-138,218,1,1
88.11378,-16156,-84,1884,-2032,-62,163,1,1
88.14696,-16180,-88,1720,-2048,-155,271,1,1
88.16354,-16784,-52,1716,-2048,-111,212,1,1
88.19672,-16452,-16,1688,-2032,-54,140,1,1
88.2298,-16028,-116,1812,-2032,-62,172,1,1
88.27965,-16264,20,1736,-2016,-142,231,1,1
88.27965,-16564,-8,1824,-2032,-140,218,1,1
88.32941,-16264,-16,1608,-2048,-84,171,1,1
88.37917,-16316,-172,1864,-2000,-149,204,1,1
88.37917,-16376,-20,1728,-2000,-136,221,1,1
88.42892,-16448,-108,1624,-2000,-69,214,1,1
88.4621,-16520,-148,1728,-2000,-151,351,1,1
88.51186,-16192,-96,1524,-2032,-54,276,1,1
88.51186,-16352,-172,1760,-2016,-122,281,1,1
88.54504,-16692,64,1624,-2032,-41,237,1,1
88.5948,-16336,-256,1848,-2032,-54,195,1,1
88.61138,-16384,8,1580,-2016,-205,412,1,1
88.64455,-16484,-120,1628,-2032,-82,143,1,1
88.69431,-16176,-36,1740,-1984,-120,195,1,1
88.69431,-16444,-28,1760,-2016,-129,222,1,1
88.72748,-16408,0,1684,-2048,-120,292,1,1
88.77724,-16484,-160,1680,-2048,-51,267,1,1
88.827,-16356,-248,1776,-2032,-94,323,1,1
88.86017,-16416,-60,1508,-2016,-105,342,1,1
88.87675,-16384,-172,1596,-2016,-88,346,1,1
88.90993,-16240,-68,1804,-2016,-121,432,1,1
88.95969,-16268,-140,1500,-2016,-121,319,1,1
88.95969,-16240,-124,1692,-2016,-184,476,1,1
89.00945,-16724,-308,1636,-2016,-242,565,1,1
89.04263,-16268,-92,1616,-2000,-115,439,1,1
89.05921,-16280,-192,1504,-2016,-174,530,1,1
89.09238,-16500,-176,1532,-2048,-204,669,1,1
89.14214,-16384,-32,1400,-2016,-186,548,1,0
89.19189,-16276,36,1408,-1984,-144,509,1,0
89.22507,-16416,-420,1624,-2048,-211,754,1,0
89.22507,-16584,-108,1376,-2032,-339,1175,1,0
89.27483,-16224,76,1200,-2032,-361,920,1,0
89.27483,-16764,-8,1020,-2032,-189,541,1,0
89.32459,-16576,-240,1288,-2016,-212,483,1,0
89.35777,-16376,-92,1344,-2016,-339,771,1,0
89.37435,-16604,88,1172,-2032,-299,673,1,0
89.40752,-16408,64,1192,-1984,-229,458,1,0
89.45728,-16540,-116,980,-1984,-260,650,1,0
89.45728,-16456,204,1064,-2048,-338,663,1,0
89.54022,-16372,176,976,-2016,-364,773,1,0
89.55681,-16420,216,832,-2016,-234,771,1,0
89.58998,-16256,116,936,-2032,-239,731,1,0
89.58998,-16604,16,1016,-2000,-319,834,1,0
89.63974,-16412,168,904,-2000,-395,875,1,0
89.67291,-16692,180,724,-2048,-303,657,1,0
89.6895,-16532,196,716,-2000,-252,492,1,0
89.72267,-16400,260,796,-2016,-282,502,1,0
89.77243,-16568,188,732,-2048,-286,639,1,0
89.77243,-16336,316,700,-2000,-353,644,1,0
89.8056,-16568,196,688,-2048,-256,472,1,0
89.85537,-16692,304,552,-2048,-190,467,1,0
89.87196,-16696,292,688,-2048,-307,753,1,0
89.90513,-16528,380,180,-2016,-291,601,1,0
89.95489,-16396,368,484,-2016,-348,686,1,0
89.95489,-16336,256,716,-2048,-391,554,1,0
90.00465,-16336,436,440,-2032,-477,493,1,0
90.03782,-16324,296,560,-2000,-487,563,1,0
90.03782,-16300,468,424,-1984,-506,700,1,0
90.08758,-16232,500,388,-2032,-387,594,1,0
90.13734,-16672,456,196,-2048,-315,700,1,0
90.13734,-16628,336,408,-2016,-313,725,1,0
90.1871,-16528,368,268,-2000,-240,618,1,0
90.22027,-16576,520,196,-2000,-313,863,1,0
90.25344,-16544,428,160,-2016,-425,971,1,0
90.27003,-16596,392,112,-2000,-414,903,1,0
90.31979,-16428,484,-116,-2000,-367,834,1,0
90.35295,-16416,396,112,-2000,-407,773,1,0
90.35295,-16832,400,96,-2048,-510,1077,1,0
90.40272,-16752,440,-52,-2032,-496,895,1,0
90.43589,-16468,712,-216,-2032,-551,1010,1,0
90.45248,-16524,892,-284,-1984,-299,559,1,0
90.48566,-16404,552,-312,-2048,-379,742,1,0
90.53542,-16180,728,-172,-2032,-308,655,0,0
90.53542,-16440,624,-128,-2016,-331,679,0,0
90.58517,-16680,720,-280,-2048,-282,604,0,0
90.63493,-16700,600,-148,-2000,-318,788,0,0
90.66811,-16436,592,-352,-1984,-446,622,0,0
90.66811,-16508,732,-596,-2000,-578,688,0,0
90.71786,-16544,824,-636,-2032,-351,579,0,0
90.76762,-16260,692,-396,-2032,-317,564,0,0
90.76762,-16688,716,-544,-2032,-380,716,0,0
90.81738,-16384,748,-684,-2000,-244,622,0,0
90.85055,-16488,804,-564,-1984,-151,488,0,0
90.90031,-16668,720,-736,-2000,-237,665,0,0
90.90031,-16476,684,-548,-1984,-278,652,0,0
90.95007,-16576,660,-660,-2016,-175,326,0,0
90.98324,-16420,796,-676,-2016,-231,403,0,0
91.033,-16668,680,-712,-1984,-275,381,0,0
91.033,-16308,792,-700,-2016,-298,233,0,0
91.06618,-16316,880,-748,-2048,-342,394,0,0
91.11594,-16496,844,-736,-2016,-173,206,0,0
91.11594,-16540,668,-720,-2048,-194,251,0,0
91.1657,-16320,812,-752,-1984,-163,309,0,0
91.21545,-16660,784,-872,-2016,-91,288,0,0
91.24863,-16568,728,-680,-2000,-128,276,0,0
91.26521,-16724,640,-652,-2032,-181,289,0,0
91.29839,-16312,804,-856,-2016,-206,416,0,0
91.34814,-16212,1000,-964,-2048,-242,293,0,0
91.34814,-16664,800,-908,-2032,-237,368,0,0
91.3979,-16360,740,-760,-2016,-162,226,0,0
91.43108,-16632,716,-796,-2016,-195,379,0,0
91.48083,-16692,780,-768,-2000,-194,426,0,0
91.48083,-16620,884,-848,-2000,-96,354,0,0
91.5306,-16368,812,-860,-2016,-83,363,0,0
91.56377,-16424,900,-1000,-2016,-129,307,0,0
91.58035,-16356,896,-952,-2000,-90,232,0,0
91.61353,-16380,848,-824,-2016,-70,232,0,0
91.66328,-16560,792,-1084,-2048,-135,214,0,0
91.71304,-16648,932,-956,-2032,-93,214,0,0
91.71304,-16252,864,-832,-2016,-69,113,0,0
91.74622,-16288,876,-944,-2000,-95,161,0,0
91.79597,-16320,924,-684,-2000,-43,120,0,0
91.79597,-16376,864,-888,-2048,-7,117,0,0
91.84571,-16408,680,-920,-2016,-31,171,0,0
91.8789,-16356,920,-848,-2016,-10,148,0,0
91.89548,-16428,792,-732,-2016,-23,123,0,0
91.92867,-16272,1008,-832,-2000,-50,194,0,0
92.0116,-16276,684,-748,-2032,17,67,0,0
92.02818,-16536,936,-1076,-2000,-30,126,0,0
92.11111,-16524,676,-860,-2000,-22,63,0,0
92.11111,-16644,624,-828,-2016,-93,233,0,0
92.16087,-16376,852,-788,-1968,-73,104,0,0
92.19405,-16540,800,-952,-2016,-138,181,0,0
92.21063,-16348,932,-872,-1968,-36,130,0,0
92.2438,-16688,740,-896,-2048,-111,217,0,0
92.2438,-16588,688,-892,-2064,-35,87,0,0
92.29357,-16444,828,-828,-1984,-18,162,0,0
92.29357,-16604,720,-932,-2000,-43,157,0,0
92.34333,-16728,648,-900,-2032,-34,140,0,0
92.3765,-16676,632,-916,-2032,43,-66,0,0
92.39309,-16312,964,-936,-2000,-128,244,0,0
92.40968,-16352,820,-1044,-2000,-57,-26,0,0
92.47602,-16532,880,-920,-1984,-35,16,0,0
92.47602,-16488,680,-856,-1984,-64,-33,0,0
92.50919,-16360,920,-876,-2000,-64,-6,0,0
92.55895,-16352,976,-944,-2016,112,-33,0,0
92.55895,-16360,656,-676,-2000,-51,-23,0,0
92.60872,-16596,864,-792,-2032,-31,-90,0,0
92.64189,-16380,780,-732,-2016,-16,-204,0,1
92.69165,-16596,708,-544,-1984,61,-121,0,1
92.69165,-16272,792,-656,-1984,54,-91,0,1
92.74141,-16472,824,-836,-2016,145,-348,0,1
92.79117,-16604,720,-692,-2000,228,-308,0,1
92.79117,-16612,628,-632,-1984,227,-485,0,1
92.82368,-16516,416,-604,-2032,238,-614,0,1
92.84093,-16632,752,-552,-2000,269,-759,0,1
92.89069,-16308,720,-600,-2032,353,-994,0,1
92.92387,-16704,384,-288,-2000,370,-825,0,1
92.97362,-16508,480,-112,-2016,277,-852,0,1
92.97362,-16352,492,-48,-2000,240,-722,0,1
93.00679,-16256,284,-72,-1968,214,-702,0,1
93.05655,-16716,328,-124,-2048,79,-362,0,1
93.05655,-16408,456,-60,-2016,77,-335,0,1
93.10631,-16656,284,-76,-2016,129,-382,0,1
93.13948,-16392,480,-56,-1984,146,-336,0,1
93.18924,-16528,520,-152,-2000,277,-431,0,1
93.18924,-16596,276,156,-2016,292,-527,0,1
93.239,-16504,272,76,-1984,216,-438,0,1
93.27217,-16408,324,88,-1984,252,-507,0,1
93.28876,-16472,172,328,-2000,159,-482,0,1
93.33852,-16540,224,52,-1984,22,-304,0,1
93.3717,-16352,396,144,-2016,113,-364,0,1
93.38828,-16456,232,284,-2000,161,-334,0,1
93.42146,-16720,84,284,-1984,162,-352,0,1
93.45462,-16524,196,356,-2000,118,-283,0,1
93.47121,-16272,240,316,-2000,107,-256,0,1
93.50439,-16736,216,276,-2000,165,-361,0,1
93.55414,-16476,76,464,-2016,188,-451,0,1
93.55414,-16392,216,804,-2000,184,-468,0,1
93.6039,-16572,-12,480,-2000,140,-331,0,1
93.63708,-16888,104,604,-2016,207,-463,0,1
93.68684,-16276,120,596,-2016,185,-422,0,1
93.68684,-16352,232,788,-2000,195,-335,0,1
93.7366,-16556,48,624,-2000,273,-338,0,1
93.76977,-16544,-16,844,-1984,307,-467,0,1
93.78635,-16768,-128,1024,-2000,206,-300,0,1
93.81953,-16700,60,680,-1984,184,-97,0,1
93.85271,-16468,208,624,-2000,316,-463,0,1
93.86929,-16620,-188,776,-2032,331,-681,0,1
93.91905,-16512,-104,980,-2016,225,-484,0,1
93.96881,-16280,4,996,-2000,183,-634,0,1
93.9854,-16284,-176,1140,-1984,120,-457,0,1
94.00198,-16164,-72,1264,-2032,93,-409,0,1
94.05174,-16092,-324,1248,-2016,-147,81,0,1
94.1015,-16244,4,1196,-2000,-107,113,0,1
94.1015,-16688,-60,1136,-2016,45,54,0,1
94.13467,-16264,0,1268,-1984,129,33,0,1
94.18443,-16332,-96,1200,-1984,62,124,0,1
94.18443,-16468,108,1260,-2000,-6,96,0,1
94.21761,-16392,-240,1136,-2000,202,-25,0,1
94.26736,-16360,-44,1076,-1984,193,6,0,1
94.26736,-16444,-164,1328,-2000,59,0,0,1
94.31712,-16460,-144,1344,-1984,-27,59,1,1
94.3503,-16428,36,1332,-1984,-12,50,1,1
94.36688,-16500,-220,1288,-2016,-93,96,1,1
94.40005,-16404,8,1208,-2032,-55,60,1,1
94.44981,-16564,-252,1324,-2016,2,33,1,1
94.49957,-16300,-136,1264,-2000,-31,83,1,1
94.49957,-16228,20,1216,-2032,-34,170,1,1
94.54933,-16632,-160,1284,-1968,-82,219,1,1
94.58251,-16296,16,1156,-2048,-40,196,1,1
94.63227,-16084,-72,1296,-1984,-54,176,1,1
94.63227,-16540,0,1128,-1984,-117,226,1,1
94.68202,-16560,-96,1060,-1968,-30,87,1,1
94.68202,-16516,-216,1252,-2000,-142,208,1,1
94.73179,-16316,112,1252,-2016,-136,257,1,1
94.76496,-16588,-164,1348,-2000,-90,277,1,1
94.79813,-16468,-112,1176,-2000,-114,258,1,1
94.81464,-16624,-212,1276,-1984,-81,204,1,1
94.86448,-16516,-56,1064,-2032,-62,283,1,1
94.89766,-16232,4,1320,-1984,53,209,1,1
94.89766,-16340,-184,1288,-2016,-41,352,1,1
94.94742,-16280,-16,984,-2016,-63,308,1,1
94.99718,-16644,-132,1056,-2000,-29,94,1,1
95.03035,-16520,-232,1148,-1968,-29,153,1,1
95.03035,-16292,-20,1068,-1984,-154,312,1,1
95.0801,-16524,-12,928,-2016,-131,196,1,1
95.12987,-16580,-180,1296,-2000,-44,141,1,1
95.12987,-16660,-200,1180,-2016,-182,390,1,1
95.17963,-16660,8,896,-2016,-76,232,1,1
95.2128,-16252,-160,1136,-1984,-31,171,1,1
95.26256,-16148,-24,1200,-2000,-217,427,1,1
95.26256,-16336,-40,920,-2000,-185,333,1,1
95.31232,-16328,-40,1012,-2032,-64,216,1,1
95.34549,-16212,-84,948,-2000,-43,289,1,1
95.36208,-16140,-156,1340,-1984,-121,286,1,1
95.39508,-16612,-48,932,-1984,-154,304,1,1
95.42842,-16384,-64,992,-2000,-53,219,1,1
95.47818,-16352,-120,1032,-1984,-164,299,1,1
95.47818,-16536,-192,1280,-2016,-135,317,1,1
95.52794,-16576,-104,1156,-2000,-177,354,1,1
95.57771,-16308,-20,1048,-2000,-155,235,1,1
95.57771,-16292,-40,932,-1984,-255,445,1,1
95.62746,-16548,36,884,-1984,-25,243,1,1
95.67722,-16292,-244,1036,-2032,-126,391,1,1
95.7104,-16424,-176,1288,-1984,-193,434,1,1
95.7104,-16388,-96,1152,-2016,-353,597,1,1
95.76016,-16512,-4,936,-2016,-218,622,1,1
95.77674,-16468,-152,1036,-2016,-255,308,1,1
95.84309,-16420,-156,1132,-2032,-640,780,1,0
95.84309,-16404,292,520,-2000,-634,1040,1,0
95.89285,-16488,268,668,-2016,-480,547,1,0
95.92603,-16544,208,764,-2000,-466,694,1,0
95.94261,-16516,408,492,-2000,-279,618,1,0
95.97578,-16240,140,452,-1984,-299,849,1,0
96.02554,-16600,-100,552,-2000,-289,714,1,0
96.02554,-16680,232,572,-2016,-336,508,1,0
96.0753,-16456,324,388,-1984,-298,757,1,0
