Time,Ax,Ay,Az,Gx,Gy,Gz
0.01658909,0,0,0,0,0,0
0.01658909,-16456,-372,-248,-3248,-2,39
0.1330836,-16476,-548,-396,-3232,-112,159
0.1330836,-16304,-596,-216,-3216,-122,172
0.1330836,-16412,-476,-448,-3232,-52,169
0.03322544,-16440,-528,-208,-3232,-35,145
0.01659031,-16416,-496,-360,-3248,-60,97
0.01659031,-16524,-512,-248,-3200,-153,248
0.01659031,-16472,-516,-224,-3216,-83,188
0.01659165,-16392,-372,-260,-3216,-117,138
0.0165868,-16412,-472,-244,-3216,-61,109
0.01659099,-16324,-556,-116,-3216,-110,116
0.0165915,-16464,-536,-148,-3200,-119,180
0.0165915,-16432,-564,-356,-3184,-27,194
0.01659062,-16432,-540,-168,-3232,-77,194
0.01659062,-16500,-488,-380,-3232,-89,176
0.0165903,-16436,-568,-496,-3200,-100,83
0.0165903,-16444,-572,-232,-3200,-114,64
0.0165924,-16444,-512,-284,-3200,-196,114
0.01659151,-16364,-536,-260,-3232,-91,106
0.01659151,-16444,-420,-316,-3232,-64,107
0.01659279,-16424,-464,-292,-3232,-59,185
0.01659279,-16488,-496,-364,-3216,-74,277
0.01671912,-16348,-492,-272,-3200,21,-74
0.01661416,-16400,-520,60,-3200,-133,300
0.01658776,-16340,-316,-332,-3184,-190,267
0.01658776,-16432,-392,-188,-3216,-146,59
0.01658905,-16480,-372,-372,-3200,-115,252
0.01658779,-16388,-512,-208,-3200,-58,128
0.01658779,-16444,-416,-272,-3232,-73,165
0.01658996,-16408,-572,-32,-3216,-69,138
0.01658887,-16524,-576,-160,-3200,-105,213
0.01658798,-16452,-512,-456,-3200,-59,178
0.01658798,-16440,-556,-140,-3216,-67,190
0.01658989,-16408,-536,-276,-3216,-29,145
0.01658989,-16500,-452,-152,-3200,-85,229
0.01658926,-16416,-548,-304,-3184,-137,224
0.01658926,-16392,-512,-276,-3168,-51,125
0.01658926,-16360,-552,-208,-3168,-126,145
0.01659104,-16524,-480,-180,-3216,-90,18
0.01659104,-16400,-436,-340,-3216,-130,174
0.01659134,-16484,-596,-228,-3248,-129,130
0.01659134,-16324,-512,-240,-3216,-104,58
0.01658821,-16456,-492,-276,-3232,-143,96
0.01659142,-16416,-456,-248,-3216,-114,88
0.01658879,-16400,-500,-180,-3200,-108,153
0.01659125,-16460,-352,-332,-3184,-151,228
0.01659125,-16476,-392,-324,-3216,-122,168
0.01659011,-16388,-540,-284,-3216,-31,93
0.01659011,-16464,-476,-192,-3200,-65,122
0.01659155,-16428,-524,-32,-3200,-198,201
0.0165897,-16400,-456,-536,-3184,-206,393
0.01658885,-16324,-472,-368,-3184,2,-1
0.0165909,-16516,-464,-200,-3200,14,63
0.01658799,-16580,-604,-64,-3216,-186,110
0.01659362,-16400,-432,-256,-3184,-206,441
0.01658487,-16472,-380,-424,-3216,2,3
0.01658895,-16460,-512,-232,-3200,-2,-60
0.01658895,-16572,-600,-132,-3168,54,267
0.01658994,-16432,-396,-228,-3200,52,316
0.01658742,-16432,-308,-592,-3216,232,83
0.01659262,-16360,-412,-112,-3184,156,-16
0.01659166,-16636,-636,-432,-3216,61,8
0.01659166,-16484,-948,-96,-3216,-196,-338
0.01658929,-16488,-808,24,-3200,-684,321
0.01658929,-16308,-288,-368,-3200,-880,535
0.01659114,-16408,4,-576,-3184,-578,169
0.01659114,-16408,-160,-84,-3200,-247,82
0.01658728,-16392,-380,-68,-3168,65,-49
0.01658728,-16468,-768,36,-3200,33,-204
0.01659101,-16488,-928,-228,-3200,-116,307
0.01658788,-16412,-732,-452,-3232,-85,558
0.01659192,-16420,-540,-512,-3200,61,195
0.01659066,-16364,-632,-140,-3200,-55,-41
0.01659066,-16432,-472,0,-3216,-517,-27
0.01659012,-16476,-124,-312,-3168,-522,319
0.01659012,-16188,-180,-412,-3184,-75,-129
0.01659182,-16436,-204,-164,-3216,80,-575
0.01658859,-16512,-404,20,-3184,119,-292
0.01658943,-16740,-476,-148,-3152,105,278
0.01658938,-16484,-336,-80,-3184,84,79
0.01658938,-16440,-256,-204,-3168,45,142
0.01658956,-16368,-308,-228,-3184,30,44
0.01658956,-16396,-464,-76,-3200,-85,-181
0.01658667,-16516,-676,96,-3200,-319,119
0.016591,-16492,-536,28,-3200,-366,310
0.016591,-16596,-364,-236,-3184,-281,212
0.01659084,-16448,-344,-144,-3184,-80,485
0.01658572,-16480,-356,24,-3184,12,429
0.01658572,-16592,-332,-32,-3152,132,144
0.01658753,-16420,-352,60,-3200,97,352
0.0169836,-16400,-312,-60,-3168,139,175
0.0169836,-16536,-392,-264,-3168,165,368
0.01658933,-16480,-456,-464,-3200,245,182
0.0165905,-16404,-400,-228,-3200,97,317
0.01659009,-16364,-364,-136,-3216,-11,503
0.01662143,-16296,-536,-692,-3200,14,141
0.01662143,-16264,-868,-92,-3200,-125,-183
0.01659436,-16616,-504,60,-3200,-507,289
0.01659465,-16552,-448,-184,-3184,-437,370
0.01659465,-16380,-276,-224,-3200,-183,311
0.01659791,-16208,-248,-120,-3184,26,228
0.0165974,-16400,-336,-332,-3184,137,165
0.01659712,-16384,-444,-164,-3216,282,-90
0.01659712,-16364,-488,-116,-3216,126,14
0.01659911,-16496,-384,-168,-3136,77,126
0.01659911,-16488,-384,-512,-3200,-7,127
0.01659743,-16324,-580,-300,-3200,-95,131
0.01659743,-16528,-476,-332,-3184,-119,98
0.01659661,-16444,-492,28,-3168,-126,137
0.01659471,-16460,-396,-104,-3168,-268,291
0.01659471,-16460,-380,-236,-3200,-142,175
0.01659935,-16388,-356,-204,-3200,-103,183
0.01660006,-16460,-364,-184,-3184,-20,199
0.01660006,-16408,-408,-144,-3168,42,323
0.01659756,-16392,-360,-420,-3184,56,136
0.01659756,-16444,-612,132,-3168,48,-2
0.01660025,-16452,-500,-136,-3184,-135,359
0.01659796,-16364,-404,-260,-3200,-255,309
0.01659796,-16380,-380,-444,-3168,-76,156
0.04979353,-16344,-544,-272,-3184,-2,-15
0.01659451,-16516,-544,-92,-3184,-97,174
0.0165995,-16388,-620,-260,-3168,-144,134
0.01659521,-16464,-300,-232,-3168,-217,177
0.01659949,-16380,-420,-116,-3168,-207,139
0.0165975,-16600,-344,-208,-3152,-141,175
0.01659528,-16476,-364,-24,-3184,46,56
0.01659528,-16380,-436,-244,-3184,16,155
0.0165964,-16408,-384,-132,-3168,6,171
0.01659684,-16556,-424,-208,-3168,149,275
0.01659758,-16480,-456,-276,-3168,187,275
0.01659758,-16316,-456,-108,-3168,-75,238
0.01659669,-16580,-280,-216,-3136,-142,267
0.01659778,-16456,-304,-320,-3168,-13,76
0.01660047,-16432,-344,-324,-3200,31,-140
0.01659513,-16568,-328,-360,-3168,-18,-90
0.01612107,-16524,-644,-116,-3168,-218,58
0.01659827,-16488,-524,-72,-3168,-345,320
0.01658585,-16368,-440,-84,-3184,-414,294
0.01658585,-16396,-232,-332,-3168,-332,159
0.01661924,-16472,-300,-344,-3152,-192,214
0.01659867,-16480,-240,-168,-3152,-35,139
0.01659669,-16524,-332,-192,-3184,-26,188
0.01659749,-16556,-220,-168,-3168,143,316
0.01659788,-16516,-348,-176,-3168,227,267
0.01659788,-16524,-340,-336,-3184,212,535
0.01659559,-16204,-720,-312,-3200,223,131
0.01659801,-15864,-1156,76,-3200,-64,22
0.01659524,-16196,-1232,-292,-3152,-332,-523
0.01659524,-16444,-1212,-72,-3184,-832,-389
0.01659628,-16876,-432,-584,-3152,-726,615
0.01659907,-17164,0,-964,-3184,-3,459
0.01659786,-16292,-220,-232,-3184,271,541
0.01659786,-15868,-232,0,-3168,285,340
0.01659721,-16160,164,68,-3152,306,-275
0.01659901,-16560,-24,-144,-3152,27,-643
0.01659759,-16416,-588,-232,-3168,-266,-1328
0.0165982,-16508,-1120,-168,-3152,-483,-909
0.0165974,-16556,-928,-120,-3152,-594,-519
0.01659697,-16548,-772,72,-3184,-431,-324
0.01659922,-16676,-320,144,-3168,-239,48
0.01659922,-16400,-84,-40,-3168,82,81
0.01659813,-16432,0,12,-3184,344,-181
0.01659931,-16424,-328,224,-3168,465,-462
0.0165975,-16532,-496,260,-3184,335,-380
0.01659752,-16628,-604,328,-3104,369,-351
0.01659752,-16452,-624,440,-3168,282,-438
0.01659969,-16596,-456,24,-3136,295,-132
0.01659969,-16412,160,-244,-3168,653,290
0.01659653,-16272,-712,12,-3168,1395,-157
0.01660334,-16128,-988,876,-3152,931,-166
0.01659513,-16392,-888,652,-3168,573,-69
0.01659677,-16408,-836,652,-3184,371,-158
0.01659875,-16484,-724,512,-3152,323,-117
0.01659617,-16440,-996,864,-3152,404,-186
0.01659812,-16500,-672,504,-3200,184,222
0.01659644,-16544,-588,24,-3184,412,-224
0.01659644,-16364,-804,540,-3120,454,-257
0.01659672,-16344,-860,872,-3152,22,375
0.01659738,-16276,-640,404,-3168,-122,175
0.0165983,-16380,-484,428,-3136,-49,10
0.0165983,-16380,-360,640,-3184,-268,439
0.01664514,-16544,-568,224,-3152,84,83
0.01660895,-16332,-884,956,-3152,375,-308
0.01660895,-16524,-668,864,-3168,210,-66
0.01660694,-16440,-740,700,-3168,218,2
0.01660694,-16364,-676,536,-3152,331,103
0.01661211,-16348,-748,560,-3120,509,-61
0.01661211,-16400,-780,940,-3152,268,80
0.01660493,-16400,-904,648,-3136,150,221
0.01660819,-16444,-848,700,-3120,30,279
0.01660819,-16352,-936,668,-3120,-131,369
0.01660673,-16356,-848,620,-3152,-51,67
0.01618628,-16340,-572,524,-3184,-53,-85
0.01701503,-16316,-608,548,-3152,-95,-238
0.01660933,-16480,-588,568,-3168,3,-177
0.01660519,-16324,-668,664,-3152,-22,-152
0.01660519,-16332,-700,648,-3136,-60,42
0.01660762,-16312,-1080,860,-3168,-130,-218
0.01660762,-16088,-1008,964,-3168,-489,-431
0.0165961,-16484,-564,428,-3168,-223,-796
0.01659589,-16716,-724,896,-3136,504,-688
0.01659589,-16376,-984,1128,-3136,442,-77
0.01659231,-16156,-1064,908,-3168,87,31
0.01659231,-16248,-832,672,-3120,-3,-14
0.01659327,-16612,-380,788,-3152,81,-264
0.01645115,-16456,-724,940,-3152,147,-254
0.01659469,-16460,-720,1100,-3152,47,-66
0.01659469,-16320,-840,1008,-3120,2,8
0.01659477,-16312,-920,956,-3152,117,-109
0.01659554,-16504,-1068,1220,-3120,150,66
0.01659373,-16416,-868,1108,-3152,32,251
0.01659411,-16280,-832,1132,-3152,49,307
0.01659531,-16324,-956,908,-3152,38,441
0.01659531,-16168,-1052,804,-3136,132,124
0.01659665,-16404,-888,1300,-3152,-34,127
0.01659535,-16412,-712,832,-3168,-28,206
0.01659535,-16228,-928,1148,-3152,-61,132
0.01664251,-16388,-888,956,-3168,-136,127
0.01659559,-16240,-832,884,-3136,-107,173
0.01659391,-16416,-776,1072,-3136,-87,340
0.01659391,-16168,-992,916,-3152,-63,118
0.01659495,-16164,-1156,900,-3136,-28,-45
0.01659279,-16548,-1020,1024,-3184,-75,-198
0.01659279,-16448,-1084,1532,-3136,-181,221
0.01659311,-16292,-868,848,-3168,-288,588
0.01659495,-16232,-724,756,-3152,-64,137
0.01659485,-16324,-868,1004,-3120,61,52
0.01659534,-16440,-944,1108,-3120,7,183
0.01659512,-16488,-880,1164,-3136,-52,197
0.01659448,-16240,-864,948,-3152,-165,277
0.01659448,-16324,-928,840,-3136,-140,252
0.01659411,-16308,-952,1068,-3120,-89,-7
0.01659402,-16440,-1012,976,-3152,2,7
0.01659471,-16496,-1028,1332,-3136,-75,166
0.01659471,-16528,-1032,1080,-3136,-461,839
0.01659462,-16248,-972,736,-3152,-282,751
0.01659462,-16220,-704,832,-3168,-18,509
0.01659331,-16148,-740,784,-3136,-51,222
0.01659551,-16276,-820,624,-3152,26,-55
0.01659551,-16300,-896,864,-3136,146,-118
0.01659574,-16384,-1144,1068,-3136,78,50
0.01659574,-16308,-1064,988,-3136,-211,68
0.01659471,-16324,-956,832,-3120,-244,19
0.01659457,-16112,-1064,1092,-3152,-245,-196
0.01659457,-16488,-964,1140,-3152,-253,-35
0.01659642,-16236,-1084,1096,-3136,-195,124
0.01659478,-16432,-820,756,-3168,-102,-38
0.01659478,-16424,-888,1248,-3152,-50,29
0.01455696,-16220,-1100,1208,-3152,-185,568
0.01659163,-16232,-972,804,-3136,-131,205
0.01659163,-16384,-816,820,-3120,29,254
0.01659584,-16372,-1084,968,-3104,19,154
0.01659416,-16432,-1044,1216,-3168,-60,366
0.01659715,-16456,-960,836,-3120,-232,407
0.01659715,-16332,-936,820,-3104,-79,279
0.01659516,-16240,-920,836,-3120,-83,224
0.01659481,-16292,-1064,884,-3136,-96,146
0.01659481,-16340,-1052,964,-3136,-272,77
0.01659442,-16272,-900,1004,-3136,-196,159
0.01659424,-16292,-924,1124,-3152,-174,68
0.01659453,-16440,-1044,980,-3120,-84,7
0.01659453,-16424,-904,1136,-3120,-86,105
0.01659449,-16376,-1016,976,-3120,-193,256
0.01659616,-16260,-980,928,-3168,-39,215
0.01659436,-16360,-860,804,-3120,-126,270
0.01659436,-16372,-1076,880,-3120,-37,125
0.01659264,-16344,-996,928,-3120,-88,129
0.0165957,-16256,-1024,1020,-3088,-56,203
0.01665464,-16392,-1028,996,-3152,-34,104
0.01665464,-16336,-1060,1008,-3120,-225,150
0.01659498,-16360,-960,1036,-3120,-143,228
0.01659296,-16332,-968,944,-3120,-79,104
0.01659296,-16340,-980,944,-3136,-24,152
0.01659588,-16412,-1008,1032,-3120,-47,153
0.01659675,-16288,-1048,840,-3104,-59,185
0.01659531,-16308,-1016,732,-3136,-36,409
0.01659628,-16292,-1076,932,-3136,66,155
0.0165917,-16264,-1304,1196,-3120,-33,321
0.01661736,-16524,-996,872,-3120,-86,331
0.01659921,-16508,-1084,1124,-3120,-54,77
0.01659921,-16264,-956,960,-3136,-219,508
0.0165995,-16208,-952,712,-3120,-265,230
0.01659904,-16368,-756,760,-3088,-160,154
0.01659904,-16284,-1016,832,-3120,15,-15
0.0165989,-16276,-1276,1348,-3120,-31,434
0.01659944,-16528,-804,852,-3136,-336,669
0.01659784,-16488,-552,580,-3120,-368,214
0.01659768,-16408,-748,704,-3104,-259,-1
0.01660006,-16248,-1080,740,-3152,-86,97
0.01659839,-16368,-768,852,-3152,-88,174
0.01659839,-16472,-852,1032,-3104,-170,85
0.01660084,-16364,-796,764,-3088,-162,253
0.01659853,-16448,-768,736,-3088,-58,267
0.01659853,-16396,-896,888,-3088,102,79
0.01660127,-16268,-1044,1148,-3136,24,76
0.01660087,-16404,-832,808,-3120,-44,142
0.0165983,-16248,-944,868,-3104,-76,173
0.01671181,-16400,-896,724,-3104,-126,92
0.01671181,-16456,-780,744,-3136,-79,97
0.01659984,-16300,-760,808,-3136,-118,156
0.01659984,-16332,-900,836,-3120,-95,106
0.01659958,-16308,-960,960,-3136,-142,179
0.01659595,-16372,-860,816,-3104,-10,185
0.01659595,-16272,-940,888,-3120,11,135
0.01659967,-16252,-1012,916,-3088,-102,179
0.01659829,-16304,-780,664,-3136,-160,150
0.01641362,-16412,-792,696,-3104,1,55
0.01660012,-16348,-1004,1028,-3104,-47,-16
0.0166006,-16432,-872,904,-3104,-89,264
0.0166006,-16224,-768,800,-3136,-80,222
0.01660015,-16216,-1024,1056,-3136,-79,76
0.0165968,-16328,-824,732,-3120,-140,130
0.01659915,-16452,-896,832,-3104,81,-46
0.01659971,-16392,-904,904,-3104,-79,208
0.01659849,-16344,-1112,924,-3136,-31,323
0.01659849,-16264,-1032,1024,-3136,-204,321
0.01659922,-16488,-736,564,-3120,-126,328
0.01659948,-16444,-904,812,-3104,-2,80
0.0165992,-16320,-960,1008,-3136,5,60
0.0165992,-16340,-968,932,-3104,-142,184
0.01660142,-16376,-788,832,-3136,-22,137
0.01660136,-16332,-1116,1016,-3104,-187,204
0.01659752,-16316,-1116,732,-3136,-340,116
0.01659746,-16488,-888,852,-3120,-196,45
0.01659816,-16380,-860,904,-3104,-262,191
0.01659816,-16368,-928,840,-3136,-114,265
0.016602,-16296,-968,860,-3088,-133,184
0.0165998,-16336,-992,944,-3120,43,171
0.01660007,-16472,-952,1028,-3152,-88,183
0.01660007,-16432,-848,948,-3136,-158,101
0.01659909,-16448,-832,752,-3072,-180,100
0.01660061,-16320,-1048,776,-3104,-97,78
0.01659858,-16380,-1040,904,-3104,-110,4
0.01659858,-16548,-1008,1044,-3104,-144,119
0.01696471,-16360,-864,956,-3136,-204,263
0.0166005,-16268,-844,784,-3088,-16,228
0.01659909,-16248,-1088,880,-3120,-73,53
0.01659901,-16420,-1020,980,-3088,-285,250
0.01659901,-16408,-892,796,-3120,-260,324
0.01659758,-16280,-884,880,-3088,-234,219
0.01660132,-16268,-708,888,-3088,-127,234
0.01660132,-16284,-820,816,-3120,-51,67
0.01659835,-16364,-928,844,-3072,-66,142
0.01660121,-16236,-928,840,-3104,-118,-52
0.01660023,-16312,-956,716,-3136,-112,69
0.01659901,-16384,-1028,900,-3104,-60,-315
0.01655379,-16600,-796,1116,-3104,-100,195
0.01659999,-16320,-980,1088,-3088,-162,387
0.01659983,-16332,-856,684,-3104,-94,185
0.01659983,-16356,-800,776,-3120,-38,138
0.0165978,-16472,-900,632,-3120,75,117
0.01659945,-16352,-976,1056,-3088,-1,92
0.01681085,-16588,-836,1000,-3072,-160,342
0.01659914,-16464,-852,916,-3104,-4,323
0.01660097,-16180,-1016,808,-3104,-100,395
0.01660136,-16152,-904,532,-3088,-113,271
0.01660382,-16324,-920,876,-3088,-13,-41
0.01660382,-16380,-832,1116,-3088,-185,70
0.0165989,-16468,-920,1036,-3120,-49,113
0.01659932,-16336,-808,976,-3072,-57,323
0.01659911,-16352,-892,812,-3120,-71,179
0.01660001,-16284,-892,904,-3088,-56,118
0.0166004,-16356,-888,812,-3104,-74,5
0.0166004,-16456,-952,804,-3088,-77,177
0.01659936,-16408,-976,972,-3120,-178,201
0.01660009,-16364,-900,916,-3088,-172,229
0.01660009,-16472,-888,744,-3120,-130,153
0.01659928,-16388,-932,860,-3104,49,108
0.01659622,-16284,-1052,1092,-3088,-23,42
0.01659995,-16428,-864,912,-3120,-201,252
0.01659995,-16468,-848,760,-3088,-91,260
0.01659995,-16380,-940,872,-3120,-55,193
0.01660112,-16340,-980,776,-3088,-117,66
0.01671864,-16416,-840,812,-3088,-129,182
0.01671864,-16360,-808,692,-3072,-97,113
0.01659944,-16280,-960,916,-3072,-118,79
0.01659999,-16460,-860,776,-3088,-155,208
0.01659863,-16392,-952,880,-3072,-66,61
0.01659863,-16416,-856,748,-3104,19,131
0.016597,-16500,-980,1048,-3136,135,186
0.01659931,-16316,-776,1080,-3072,-108,325
0.01660158,-16288,-940,860,-3104,-131,237
0.01659081,-16296,-832,700,-3088,-257,313
0.01659081,-16364,-716,628,-3072,-83,177
0.01659906,-16360,-964,864,-3104,20,-39
0.01659906,-16344,-984,952,-3088,-79,17
0.01660148,-16488,-884,856,-3104,-111,228
0.01659705,-16316,-988,824,-3072,-54,200
0.01659705,-16328,-964,800,-3072,-208,159
0.01660115,-16328,-852,884,-3088,-181,131
0.01660243,-16388,-872,820,-3072,-163,55
0.01660243,-16392,-1032,988,-3088,-140,276
0.01643053,-16364,-1008,920,-3104,-53,203
0.01643053,-16364,-1120,1096,-3088,-109,157
0.0166002,-16420,-872,1000,-3072,-165,320
0.01659966,-16084,-840,820,-3104,-272,-155
0.01659944,-16196,-876,836,-3104,-158,44
0.01659944,-16312,-924,884,-3088,-66,97
0.01660162,-16288,-1040,836,-3072,-309,-17
0.01659767,-16452,-952,752,-3088,-320,55
0.01659767,-16352,-800,804,-3056,-211,20
0.01660038,-16284,-864,724,-3088,-236,117
0.01660038,-16168,-852,1052,-3120,-243,20
0.01659933,-16440,-992,856,-3104,-57,232
0.0165999,-16536,-776,1112,-3072,-219,217
0.01659843,-16384,-1044,948,-3072,-186,23
0.01659907,-16332,-972,1080,-3072,-243,-40
0.01659976,-16356,-800,844,-3104,-327,79
0.01659976,-16372,-848,964,-3120,-283,-16
0.01609899,-16416,-764,812,-3088,-169,59
0.01659755,-16188,-920,1080,-3040,-280,85
0.01659755,-16364,-860,772,-3088,-245,-27
0.01658983,-16340,-1016,932,-3088,-191,20
0.0165867,-16488,-984,896,-3072,-160,65
0.0165867,-16372,-1024,1220,-3104,-270,66
0.01658789,-16460,-844,960,-3088,-320,321
0.01658764,-16248,-816,992,-3072,-249,-50
0.01658764,-16268,-904,1020,-3104,-272,252
0.01658926,-16420,-864,744,-3088,-238,98
0.01658733,-16344,-900,784,-3056,-224,29
0.01658733,-16436,-944,1044,-3072,-239,185
0.01658945,-16400,-952,952,-3088,-244,202
0.01658635,-16324,-876,828,-3120,-131,159
0.01658943,-16392,-908,1032,-3072,-236,165
0.01658943,-16316,-988,892,-3088,-226,330
0.01658695,-16380,-928,1052,-3088,-247,246
0.01658831,-16324,-720,1032,-3040,-263,475
0.01658766,-16292,-684,764,-3056,-230,292
0.01658902,-16268,-760,880,-3088,-169,363
0.01658902,-16424,-780,1036,-3088,-179,288
0.01658783,-16340,-728,844,-3040,-293,309
0.01658808,-16380,-840,936,-3072,-216,148
0.01658912,-16420,-852,1040,-3024,-402,327
0.01658809,-16300,-632,872,-3072,-414,258
0.01658886,-16428,-708,900,-3104,-334,349
0.01658741,-16256,-644,632,-3104,-305,157
0.01658741,-16380,-760,748,-3088,-224,193
0.01658718,-16352,-748,916,-3040,-208,319
0.01658671,-16408,-632,680,-3088,-169,342
0.01658671,-16440,-696,920,-3088,82,125
0.01658556,-16476,-644,824,-3040,149,300
0.0165887,-16384,-760,904,-3088,129,203
0.01658759,-16276,-868,988,-3072,24,260
0.01658664,-16340,-744,948,-3104,-55,243
0.01658797,-16476,-724,764,-3056,-164,343
0.01658797,-16548,-572,616,-3088,-168,404
0.01659405,-16336,-648,716,-3056,16,382
0.01446662,-16360,-808,732,-3088,97,192
0.01446662,-16268,-880,1084,-3088,13,346
0.01659337,-16360,-844,724,-3040,-191,604
0.01659337,-16500,-464,492,-3072,-148,428
0.01659697,-16372,-648,580,-3072,-178,489
0.01651489,-16340,-560,500,-3056,6,171
0.01659552,-16328,-628,880,-3040,-133,109
0.01659448,-16300,-764,616,-3088,-110,10
0.01659387,-16432,-800,896,-3040,-349,271
0.01659387,-16400,-740,768,-3056,-569,626
0.01675729,-16404,-580,500,-3088,-391,497
0.01659523,-16476,-596,576,-3056,-202,212
0.01659476,-16340,-556,600,-3104,-171,402
0.01659412,-16448,-496,468,-3088,-107,425
0.01659412,-16460,-716,524,-3104,20,200
0.01659639,-16512,-680,528,-3056,-69,356
0.01659639,-16352,-548,392,-3056,-58,330
0.01659481,-16320,-604,460,-3072,-78,191
0.01659564,-16364,-780,544,-3056,-104,208
0.01659421,-16420,-808,604,-3072,-159,282
0.01659421,-16380,-696,464,-3072,-185,224
0.01659373,-16376,-536,784,-3056,-191,50
0.01659543,-16248,-656,732,-3056,-387,-50
0.01659543,-16524,-832,520,-3104,-553,27
0.01659491,-16440,-852,584,-3056,-539,170
0.01659491,-16412,-816,644,-3056,-566,398
0.01659409,-16524,-484,264,-3072,-407,529
0.016594,-16264,-364,408,-3040,-138,219
0.0165487,-16356,-560,604,-3088,48,165
0.01664083,-16464,-756,584,-3072,125,177
0.01660483,-16520,-780,592,-3040,67,217
0.01659681,-16368,-672,504,-3072,-41,263
0.01659264,-16420,-740,500,-3072,15,185
0.01659654,-16420,-628,528,-3056,-53,393
0.01659505,-16496,-540,220,-3040,14,172
0.01659505,-16416,-724,688,-3072,32,46
0.0165954,-16276,-748,512,-3056,-86,241
0.01659323,-16348,-584,504,-3088,-204,293
0.01659323,-16440,-456,368,-3040,-201,422
0.01659397,-16448,-632,44,-3072,-114,307
0.01659528,-16396,-660,632,-3040,-79,102
0.01659426,-16496,-688,528,-3040,-173,247
0.01659492,-16440,-608,296,-3056,-166,217
0.0165949,-16420,-636,488,-3088,-142,169
0.0165949,-16448,-644,468,-3056,-90,152
0.01659275,-16364,-620,444,-3024,-133,339
0.01659416,-16428,-660,344,-3056,-75,183
0.01659416,-16332,-724,348,-3056,-47,115
0.01659427,-16404,-628,664,-3056,-145,148
0.01659421,-16432,-576,504,-3072,-200,363
0.01659488,-16368,-776,456,-3040,-229,151
0.01659577,-16312,-696,548,-3040,-392,332
0.01659247,-16532,-572,428,-3072,-358,240
0.01659482,-16388,-408,308,-3056,-315,96
0.01659383,-16408,-476,360,-3072,-227,107
0.01644288,-16372,-556,336,-3056,-139,112
0.01659447,-16340,-700,360,-3072,-106,54
0.01659447,-16432,-624,544,-3088,-176,220
0.01659466,-16452,-592,360,-3072,-42,393
0.01659466,-16516,-556,292,-3088,32,359
0.01659821,-16336,-592,328,-3040,-27,120
0.01659639,-16396,-628,328,-3024,-63,213
0.01659639,-16348,-616,440,-3072,-99,173
0.01659324,-16408,-608,388,-3040,-197,228
0.01659595,-16440,-664,288,-3104,-118,99
0.01659595,-16368,-584,472,-3040,-46,130
0.01659659,-16476,-724,176,-3024,-65,23
0.01659653,-16372,-792,616,-3056,-4,-76
0.01659653,-16364,-656,548,-3024,-75,71
0.01659375,-16624,-1040,332,-3040,-381,15
0.01659409,-16564,-712,68,-3072,-158,332
0.01659409,-16476,-424,184,-3072,-63,228
0.01659657,-16456,-464,76,-3056,-64,23
0.01659721,-16344,-768,428,-3072,-13,-91
0.01659574,-16428,-624,692,-3040,-71,93
0.01659806,-16408,-656,572,-3040,-134,231
0.01659806,-16472,-512,256,-3056,-115,224
0.01659586,-16540,-652,332,-3056,14,214
0.0165941,-16296,-648,444,-3040,11,151
0.0165941,-16448,-576,472,-3040,-115,186
0.01659933,-16360,-612,384,-3024,-86,114
0.01659581,-16532,-516,388,-3040,-78,68
0.01659581,-16400,-768,524,-3024,33,-141
0.01659377,-16516,-796,512,-3072,-117,209
0.01659408,-16388,-600,620,-3024,-193,287
0.01659624,-16296,-572,180,-3040,-193,183
0.01659624,-16348,-628,524,-3040,-160,-16
0.01659624,-16480,-728,440,-3008,-132,141
0.01659624,-16432,-584,560,-3056,-137,184
0.01659741,-16468,-656,356,-3040,-156,265
0.01659741,-16368,-496,524,-3040,-90,183
0.01659734,-16444,-584,572,-3024,26,109
0.01659879,-16408,-612,500,-3024,-135,204
0.01659879,-16388,-652,480,-3072,-118,186
0.01659618,-16364,-648,444,-3024,-84,241
0.01659588,-16380,-616,420,-3024,-103,156
0.01659949,-16348,-596,532,-3056,-164,221
0.01659469,-16432,-520,396,-3072,-299,280
0.01659709,-16484,-484,272,-3040,-346,237
0.01659615,-16432,-556,416,-3024,-146,152
0.01659555,-16392,-528,480,-3024,-93,248
0.01659464,-16324,-596,448,-3056,-16,115
0.01659725,-16436,-680,448,-3040,-50,122
0.01659725,-16376,-556,444,-3008,-31,138
0.01659732,-16304,-636,204,-3056,-126,197
0.01659596,-16392,-752,356,-3024,-72,84
0.0165955,-16480,-752,324,-3024,22,230
0.01659438,-16364,-624,492,-3056,-94,140
0.01659438,-16452,-564,292,-3072,-136,171
0.01659657,-16428,-672,416,-3056,-103,169
0.01659715,-16424,-512,376,-3024,-75,127
0.01659525,-16416,-628,548,-3024,-86,92
0.01659724,-16380,-628,432,-3024,-165,147
0.01659724,-16372,-648,248,-3040,-101,156
0.01659448,-16440,-648,368,-3056,-63,166
0.01659784,-16456,-672,420,-3056,-73,144
0.01659655,-16412,-644,340,-3024,-84,102
0.01659779,-16452,-664,492,-3056,-113,144
0.01659621,-16420,-640,324,-3056,-75,241
0.01659621,-16320,-592,500,-3008,-75,147
0.01659685,-16412,-620,380,-3024,-72,161
0.01659422,-16344,-716,256,-3040,-214,95
0.01659422,-16468,-608,508,-3056,-175,167
0.01659681,-16480,-548,212,-3040,-65,143
0.01659563,-16416,-620,676,-3056,-8,-62
0.01659688,-16444,-632,572,-3040,-140,265
0.01659688,-16324,-620,408,-3056,-135,209
0.0165962,-16504,-632,424,-3040,-105,167
0.01659392,-16392,-532,348,-3024,-49,265
0.01659392,-16380,-504,328,-3040,55,117
0.01640646,-16424,-760,500,-3056,111,61
0.01659474,-16524,-748,576,-3024,-13,189
0.01659474,-16384,-608,392,-3040,-117,278
0.01659778,-16340,-608,484,-3024,-109,184
0.01659722,-16432,-708,532,-3056,-48,107
0.01659722,-16432,-708,520,-3056,-141,233
0.01659815,-16464,-576,316,-3008,-168,155
0.0165971,-16380,-600,396,-3040,-93,194
0.01659461,-16428,-612,536,-3024,-72,183
0.01659461,-16404,-700,616,-3040,-53,212
0.01659533,-16500,-696,460,-3024,-90,220
0.01659545,-16548,-608,308,-3008,-104,154
0.01659545,-16428,-608,336,-3008,-72,81
0.01659616,-16384,-684,284,-3040,-111,159
0.01659751,-16388,-720,296,-3040,-108,99
0.01659525,-16372,-612,232,-3024,-114,180
0.01659525,-16360,-656,452,-2992,-155,129
0.01659583,-16528,-580,364,-3024,-82,112
0.01659694,-16376,-716,616,-3040,-1,238
0.01659694,-16312,-644,660,-3072,-134,252
0.01659504,-16408,-528,404,-3008,-93,238
0.01659884,-16460,-580,376,-3024,-19,36
0.01659696,-16360,-712,376,-3024,-20,184
0.01659696,-16424,-588,192,-3008,10,88
0.01659686,-16300,-664,692,-3040,12,102
0.01659556,-16364,-608,604,-3040,-226,360
0.01659547,-16364,-516,72,-3008,-122,138
0.01659592,-16332,-580,348,-3040,-26,201
0.01659622,-16360,-688,652,-2992,-77,143
0.01659622,-16416,-580,480,-2992,-99,148
0.01659631,-16420,-616,364,-3008,-115,141
0.01659558,-16400,-600,300,-3040,-130,150
0.0165956,-16524,-536,356,-3024,-99,195
0.0165956,-16404,-664,436,-3040,-33,125
0.0165966,-16436,-648,468,-2992,-57,308
0.01659519,-16372,-660,244,-3040,-22,178
0.01659711,-16388,-616,188,-3040,38,61
0.01659711,-16444,-704,596,-3024,-54,269
0.01659691,-16492,-684,396,-3024,-144,263
0.01659678,-16488,-696,300,-3040,-158,160
0.01659629,-16420,-636,424,-3008,-49,106
0.01659496,-16412,-588,448,-3056,-103,177
0.01659705,-16328,-728,308,-3008,-123,174
0.01659737,-16388,-692,348,-3008,-126,145
0.01659737,-16448,-648,288,-3008,-79,126
0.01659685,-16448,-676,300,-3024,-49,82
0.01659506,-16416,-696,504,-2992,-121,204
0.01659506,-16344,-636,272,-3024,-136,174
0.01659591,-16464,-608,352,-3024,-69,46
0.01659481,-16484,-708,360,-3008,-64,106
0.01659532,-16448,-700,488,-2992,-118,240
0.01659532,-16320,-664,384,-3008,-146,146
0.0165965,-16408,-572,340,-2992,-105,145
0.01657742,-16396,-712,396,-3024,7,-48
0.01661497,-16392,-640,604,-2992,-31,185
0.01659627,-16472,-632,252,-3024,-94,270
0.01659536,-16328,-800,516,-3008,25,-28
0.01660043,-16368,-708,540,-2976,-86,306
0.01659706,-16520,-612,308,-3008,-85,147
0.01659706,-16452,-476,412,-3024,-64,164
0.01660571,-16356,-352,68,-3024,48,24
0.01660571,-16416,-748,400,-2992,312,-305
0.01660518,-16488,-860,676,-3056,18,163
0.01660518,-16468,-724,492,-3008,-109,100
0.01660509,-16380,-680,456,-3008,-98,141
0.01660509,-16328,-592,276,-3040,-71,39
0.01660492,-16424,-596,332,-3024,93,-40
0.01660542,-16404,-672,436,-3008,180,-63
0.01660422,-16436,-688,712,-2992,86,114
0.01660614,-16408,-732,416,-2992,95,9
0.01660614,-16336,-652,344,-3008,164,39
0.01660593,-16376,-800,664,-3040,212,-71
0.01660593,-16456,-800,936,-3008,41,-107
0.01660465,-16556,-664,668,-3008,-145,201
0.01660571,-16456,-584,352,-2992,-37,225
0.01660571,-16344,-604,356,-3024,89,-128
0.01660544,-16316,-660,496,-2992,123,-197
0.01660399,-16504,-748,692,-3008,149,-164
0.01660399,-16428,-760,700,-3008,-33,-22
0.0166051,-16312,-800,624,-2992,-128,52
0.0166067,-16300,-688,660,-3008,52,-179
0.0166067,-16268,-748,800,-3008,28,-293
0.01660601,-16512,-556,816,-3024,-31,-99
0.01660581,-16388,-560,580,-3024,110,-225
0.01660502,-16308,-468,488,-3024,596,203
0.01660542,-16240,-780,984,-3008,236,-446
0.01660695,-16444,-800,484,-3024,331,-208
0.01660695,-16392,-688,948,-2992,190,-199
0.01612443,-16372,-716,764,-3024,322,-597
0.01660574,-16392,-660,764,-2992,328,-529
0.01660574,-16212,-616,860,-2992,488,-517
0.01651787,-16328,-912,1188,-3024,286,-302
0.0165888,-16440,-748,1020,-2960,256,26
0.0165888,-16308,-888,1128,-2976,328,-570
0.01658853,-16576,-732,1104,-2976,110,107
0.0165884,-16232,-852,1108,-3024,184,62
0.016588,-16268,-1012,1292,-2976,284,-8
0.016588,-16332,-972,1036,-3040,255,10
0.01659065,-16192,-1004,1408,-2992,87,36
0.01659037,-16288,-836,1000,-2992,-91,108
0.01659037,-16268,-840,1000,-3008,122,-21
0.01658841,-16256,-844,1076,-2992,135,-71
0.01658796,-16260,-800,1116,-3008,81,-15
0.01658796,-16268,-920,1224,-3008,130,-93
0.0165876,-16280,-688,1196,-2992,111,-390
0.01658877,-16284,-856,1368,-3008,-16,-339
0.01659006,-16404,-856,1120,-2976,49,-229
0.01659006,-16292,-928,1340,-3008,175,-214
0.01659075,-16260,-912,1512,-3008,139,-135
0.01658715,-16316,-868,1316,-2992,54,-128
0.01658807,-16356,-884,1148,-3008,65,-177
0.01658922,-16140,-1068,1612,-3008,97,-282
0.01658645,-16296,-1164,1496,-2992,0,-390
0.01658804,-16488,-908,1436,-3008,37,-339
0.0165874,-16276,-800,1564,-2992,-85,-39
0.0165874,-16328,-768,1116,-3008,-59,62
0.01659944,-16284,-912,1496,-3024,63,-102
0.01660063,-16368,-820,1176,-2976,126,-12
0.01660063,-16276,-872,1500,-3008,214,-69
0.01653586,-16264,-948,1596,-2992,99,-9
0.01653586,-16212,-1080,1664,-2992,-2,-88
0.01660115,-16344,-944,1560,-2992,10,-88
0.0165968,-16232,-1116,1812,-3024,-29,-155
0.01659835,-16280,-892,1704,-3008,-99,-5
0.01660017,-16360,-920,1532,-2960,-110,164
0.01660017,-16220,-852,1544,-2976,-6,-10
0.01660054,-16228,-880,1576,-2992,139,59
0.01660134,-16360,-740,1792,-3008,105,247
0.01659774,-16184,-864,1628,-2976,137,245
0.01660016,-16136,-1020,1848,-2992,183,-43
0.01659874,-16236,-912,1748,-2992,69,93
0.01660195,-16252,-860,1544,-2992,34,52
0.01660195,-16332,-752,1524,-3008,52,149
0.01660109,-16268,-948,1668,-3024,169,51
0.01660009,-16276,-1004,1696,-3008,68,33
0.01660009,-16180,-988,1736,-2960,6,23
0.01659727,-16188,-972,1624,-2992,-31,-9
0.01659929,-16412,-924,1724,-2976,35,-119
0.01659937,-16320,-1040,1884,-3008,-33,307
0.01660067,-16196,-904,1756,-2992,-111,308
0.01659973,-16176,-952,1604,-2992,-31,203
0.01659742,-16224,-856,1600,-2992,43,44
0.01660136,-16364,-892,1824,-2992,16,116
0.01659969,-16364,-844,1652,-3024,-32,228
0.01660104,-16312,-952,1708,-3024,117,87
0.01659978,-16240,-948,1664,-3008,47,251
0.01659978,-16276,-1032,1852,-2976,12,147
0.01660065,-16252,-872,1824,-2992,-146,198
0.01659912,-16312,-892,1624,-3008,-203,239
0.01660059,-16332,-936,1536,-2976,-58,234
0.01660001,-16228,-888,1600,-2960,20,139
0.01660105,-16360,-976,1688,-2992,-46,214
0.01660198,-16196,-1012,1784,-2976,-105,131
0.01659717,-16212,-828,1648,-2976,-198,247
0.01659941,-16292,-860,1752,-2992,-148,149
0.01658854,-16244,-884,1760,-2976,-196,147
0.01658888,-16284,-896,1732,-2992,-168,101
0.01658888,-16428,-800,1704,-3008,-96,23
0.01658987,-16268,-1000,1648,-2992,-82,247
0.01658714,-16320,-992,1648,-3008,-47,238
0.01658714,-16200,-912,1788,-2976,-69,136
0.01653877,-16276,-920,1624,-2992,-8,181
0.01653877,-16392,-1056,1628,-3008,100,-54
0.0165891,-16248,-944,1924,-2960,20,304
0.0165891,-16180,-932,1560,-2976,-11,417
0.01658974,-16252,-924,1632,-2960,-41,247
0.01658974,-16376,-888,1796,-2992,73,128
0.01658772,-16388,-952,1832,-3008,45,109
0.01658984,-16308,-1128,1844,-2992,-58,98
0.01658984,-16356,-852,1592,-2960,-177,187
0.01830815,-16216,-956,1728,-2992,-116,123
0.01658929,-16372,-932,1868,-3008,-124,105
0.01658766,-16288,-932,1664,-2976,-138,203
0.01658827,-16440,-844,1584,-3008,-54,169
0.01658966,-16372,-1008,1692,-2992,-120,279
0.01658966,-16240,-936,1556,-2976,-42,480
0.0165877,-16180,-976,1688,-3008,133,121
0.01658727,-16220,-1016,1852,-2976,50,119
0.01658801,-16224,-944,1636,-3008,-17,90
0.01659258,-16248,-956,1568,-2976,-17,205
0.01659159,-16172,-1092,1628,-2976,-20,85
0.01658734,-16296,-1088,1820,-2976,-110,152
0.01658734,-16224,-960,1744,-2976,-203,229
0.01659915,-16328,-788,1552,-2992,-201,257
0.01659915,-16336,-788,1684,-3008,28,144
0.01643991,-16192,-968,1736,-2960,51,74
0.01676007,-16296,-1024,1660,-2960,10,155
0.01676383,-16256,-980,1668,-2960,-71,259
0.01660002,-16252,-964,1564,-2976,-79,276
0.01660002,-16232,-860,1764,-2976,-98,58
0.01660081,-16300,-884,1400,-2976,-63,135
0.0166006,-16396,-888,1808,-2992,1,-22
0.0166006,-16360,-992,1952,-2976,-165,147
0.01660092,-16364,-1004,1732,-2960,-322,491
0.01660092,-16184,-888,1572,-2992,-354,443
0.01660004,-16324,-788,1412,-2960,-143,253
0.01659991,-16320,-800,1568,-2976,-47,164
0.01659979,-16320,-948,1536,-2960,3,194
0.01660118,-16256,-996,1696,-2976,-12,237
0.0166007,-16308,-824,1476,-2992,-20,207
0.01660161,-16208,-944,1644,-2992,-75,318
0.01660161,-16092,-1008,1444,-2992,-43,38
0.01659992,-16320,-968,1660,-2976,-85,-17
0.01660149,-16332,-868,1736,-2976,-276,194
0.01660211,-16444,-924,1464,-2960,-143,177
0.01660211,-16268,-1004,1600,-2992,-60,110
0.01660177,-16312,-860,1712,-2992,-54,218
0.01659876,-16408,-936,1620,-2976,-50,195
0.01660121,-16292,-1056,1592,-2976,-23,184
0.01660121,-16212,-932,1656,-2976,-105,201
0.01660145,-16264,-880,1556,-2976,-150,132
0.01659817,-16312,-860,1544,-2976,-94,116
0.01660043,-16184,-920,1760,-2960,-98,93
0.01660061,-16272,-840,1644,-2976,-133,270
0.01659841,-16220,-928,1612,-2960,-55,168
0.01659965,-16272,-900,1556,-2976,-83,188
0.01659965,-16372,-884,1544,-2976,-85,97
0.01660182,-16288,-792,1536,-2960,-31,205
0.01659996,-16268,-924,1568,-2976,33,192
0.01659996,-16356,-1016,1932,-2944,-27,248
0.01660144,-16264,-824,1516,-2960,-166,398
0.01659923,-16280,-900,1448,-2992,-93,188
0.01660083,-16256,-860,1584,-2992,-109,35
0.01659989,-16332,-844,1448,-2976,-112,124
0.01660091,-16348,-852,1552,-2976,-80,114
0.01660223,-16248,-904,1780,-2976,-157,41
0.01660223,-16228,-912,1512,-2944,-117,161
0.01660273,-16368,-972,1588,-2960,66,-2
0.01660135,-16352,-804,1804,-2976,-69,207
0.01660135,-16296,-852,1564,-2976,-228,360
0.01660012,-16228,-808,1452,-2928,-148,185
0.01659913,-16312,-756,1384,-2944,-7,109
0.01659896,-16420,-864,1608,-2976,4,26
0.01659896,-16308,-780,1824,-2960,-92,156
0.0165968,-16364,-944,1472,-2960,-149,178
0.0165968,-16240,-868,1492,-2976,-102,191
0.01659507,-16208,-848,1672,-2944,-60,217
0.01659883,-16120,-948,1840,-2976,-78,129
0.01659883,-16316,-820,1596,-2960,-83,60
0.01659731,-16236,-836,1668,-2944,-202,259
0.01659731,-16296,-804,1308,-2992,-127,189
0.0165978,-16240,-932,1532,-2960,-27,101
0.01659854,-16452,-756,1760,-2960,-48,41
0.01659854,-16284,-864,1712,-2976,-112,240
0.01680566,-16208,-808,1508,-2944,-40,136
0.01659774,-16276,-844,1432,-2992,-45,38
0.01659895,-16236,-880,1628,-2944,-112,62
0.0165916,-16380,-776,1660,-2928,-91,64
0.01659824,-16240,-940,1616,-2976,-93,221
0.01659962,-16344,-884,1568,-2992,-140,99
0.01659935,-16408,-924,1476,-2928,-19,89
0.01659966,-16280,-824,1544,-2960,-65,179
0.01659966,-16316,-908,1676,-2960,4,162
0.01659792,-16220,-984,1780,-2928,-73,242
0.01659799,-16256,-860,1664,-2960,-227,319
0.01659938,-16164,-888,1428,-2960,-115,66
0.01659879,-16296,-760,1540,-2960,-160,98
0.01658506,-16284,-816,1756,-2976,-70,63
0.01658424,-16276,-944,1672,-2960,-75,-50
0.01658245,-16340,-832,1716,-2976,-147,215
0.01658245,-16328,-820,1516,-2960,-124,186
0.01659323,-16200,-904,1812,-2960,-59,130
0.01659323,-16228,-952,1676,-2928,-101,94
0.01658429,-16428,-836,1824,-2960,-15,77
0.01658298,-16280,-860,1860,-2992,-174,283
0.01658345,-16120,-948,1556,-2976,-239,295
0.01658345,-16212,-776,1616,-2944,-98,170
0.01658438,-16272,-764,1572,-2960,10,58
0.01658946,-16292,-960,1944,-2992,-62,62
0.01658946,-16364,-912,1712,-2944,-125,179
0.01658864,-16352,-812,1536,-2944,-128,225
0.01658401,-16220,-784,1616,-2976,-80,58
0.01658566,-16216,-948,1552,-2960,-48,79
0.01658566,-16292,-1044,1728,-2976,59,47
0.01658489,-16344,-932,1708,-2944,-182,181
0.01658483,-16284,-988,1688,-2960,-239,211
0.01658483,-16352,-976,1536,-2976,-182,131
0.01658421,-16328,-828,1664,-2928,-80,67
0.0163069,-16264,-820,1860,-2944,-84,26
0.01658432,-16296,-820,1724,-2960,-83,131
0.01656928,-16176,-888,1640,-2960,-21,154
0.01658462,-16188,-964,1708,-2928,-128,146
0.01658669,-16284,-952,1568,-2960,-119,98
0.01658669,-16240,-760,1668,-2976,-117,134
0.01658389,-16260,-872,1744,-2928,-51,198
0.01658428,-16148,-956,1632,-2992,-119,157
0.01658306,-16316,-904,1732,-2960,-93,140
0.01658306,-16308,-880,1732,-2960,-37,251
0.01658299,-16332,-972,1600,-2944,-82,219
0.01658676,-16248,-1012,1640,-2944,-158,187
0.01659446,-16200,-808,1600,-2944,-179,163
0.01659446,-16256,-740,1564,-2944,-187,98
0.01658249,-16420,-864,1628,-2928,-53,41
0.01658501,-16244,-916,1768,-2944,-149,189
0.01658501,-16268,-992,1644,-2944,-194,163
0.01658318,-16316,-916,1768,-2960,-110,22
0.01658335,-16288,-920,1876,-2944,-184,205
0.01658335,-16332,-852,1604,-2960,-116,45
0.01658167,-16228,-972,1688,-2960,-88,72
0.01658351,-16376,-872,1824,-2992,-196,228
0.01658552,-16280,-1068,1696,-2944,-234,196
0.01658353,-16196,-816,1732,-2928,-393,409
0.01659011,-16200,-776,1680,-2944,-304,162
0.01658255,-16144,-1032,1752,-2944,-291,11
0.01658555,-16136,-908,1892,-2976,-457,104
0.01658498,-16280,-720,1648,-2928,-427,119
0.01658143,-16340,-680,1696,-2976,-272,165
0.01658143,-16316,-904,1576,-2912,-191,57
0.01658303,-16216,-940,1604,-2976,-124,188
0.01658487,-16240,-944,1748,-2976,-228,261
0.0166084,-16316,-732,1684,-2928,-308,220
0.01659182,-16292,-816,1588,-2928,-189,111
0.01659182,-16252,-996,1728,-2928,-158,140
0.01659446,-16248,-848,1924,-2912,-345,191
0.01659168,-16264,-860,1624,-2928,-428,34
0.01658878,-16244,-1012,1596,-2976,-352,-83
0.01658907,-16316,-908,1780,-2912,-505,206
0.01658907,-16308,-776,1724,-2944,-574,208
0.01658908,-16340,-584,1488,-2944,-458,254
0.01658908,-16192,-892,1604,-2944,-210,142
0.01658811,-16240,-804,1784,-2960,-141,182
0.01658954,-16332,-904,1756,-2944,-130,166
0.01658954,-16292,-704,1500,-2944,-118,296
0.01659068,-16336,-944,1900,-2928,-49,328
0.01659205,-16364,-932,1560,-2928,-102,254
0.01659018,-16236,-924,1736,-2960,-206,361
0.01659094,-16272,-800,1552,-2944,-342,357
0.01658904,-16312,-804,1472,-2960,-209,221
0.01658949,-16268,-852,1752,-2944,-274,266
0.01658949,-16280,-892,1616,-2960,-287,284
0.01659128,-16272,-892,1564,-2960,-308,277
0.0165933,-16248,-756,1504,-2944,-356,198
0.0165933,-16408,-816,1524,-2928,-173,153
0.01659023,-16236,-772,1792,-2912,-245,360
0.01659105,-16132,-792,1428,-2944,-149,145
0.01658813,-16304,-836,1612,-2960,-159,-6
0.01658918,-16316,-844,1436,-2928,-202,244
0.01658768,-16304,-740,1540,-2928,-213,190
0.01658768,-16208,-792,1556,-2928,-175,140
0.01659157,-16196,-712,1748,-2928,-87,116
0.01659157,-16172,-628,1740,-2928,-201,84
0.01658679,-16324,-588,1848,-2944,-151,-10
0.01659169,-16352,-692,1528,-2944,-260,174
0.01659169,-16316,-700,1384,-2928,-275,138
0.01658961,-16348,-672,1452,-2944,-273,175
0.01658786,-16392,-720,1484,-2960,-270,186
0.01658786,-16288,-584,1780,-2944,-180,137
0.01658959,-16280,-720,1768,-2960,-199,86
0.01658973,-16456,-552,1488,-2928,-178,173
0.01659093,-16252,-768,1580,-2944,-110,91
0.01659198,-16312,-868,1560,-2928,-212,265
0.01658952,-16336,-740,1432,-2976,-267,266
0.01658806,-16304,-676,1580,-2960,-271,385
0.01659078,-16228,-768,1672,-2928,-179,322
0.01659014,-16440,-752,1660,-2928,-154,450
0.0163773,-16312,-776,1636,-2944,-247,356
0.01658977,-16184,-684,1596,-2912,-288,316
0.01658702,-16344,-512,1488,-2928,-206,278
0.01707673,-16292,-568,1536,-2944,-99,196
0.0169467,-16116,-468,1472,-2944,-110,11
0.01658961,-16208,-752,1624,-2960,-172,1
0.0166282,-16508,-844,1624,-2944,-218,-325
0.01659641,-16408,-844,1456,-2928,-196,256
0.01659503,-16276,-728,1452,-2896,-212,289
0.01659419,-16284,-624,1392,-2928,-216,301
0.01659556,-16260,-588,1384,-2928,-58,321
0.01659556,-16376,-824,1736,-2944,52,140
0.01659505,-16316,-836,1740,-2928,-39,348
0.01659509,-16256,-572,1588,-2880,-170,385
0.01659538,-16428,-572,1308,-2960,-204,443
0.01659707,-16240,-568,1308,-2944,-123,365
0.0165955,-16352,-648,1476,-2944,-113,266
0.01659549,-16380,-648,1292,-2928,-84,237
0.01659342,-16156,-748,1564,-2928,-220,220
0.0165955,-16360,-840,1256,-2912,-186,172
0.01659715,-16304,-820,1568,-2928,-230,263
0.01659476,-16404,-740,1492,-2928,-307,384
0.01659476,-16304,-696,1224,-2928,-231,409
0.01659457,-16344,-600,1268,-2912,-28,268
0.01659713,-16276,-748,1452,-2896,-48,137
0.01659713,-16352,-768,1216,-2912,-109,246
0.01659666,-16272,-788,1260,-2928,-152,193
0.01659566,-16360,-608,1344,-2912,-129,147
0.01659497,-16368,-668,1432,-2944,-130,204
0.01659576,-16280,-708,1348,-2928,-181,186
0.01666107,-16428,-700,1416,-2912,-152,177
0.01659755,-16360,-548,1520,-2928,-164,104
0.01659383,-16352,-668,1312,-2960,-207,211
0.01659337,-16368,-528,1264,-2928,-131,195
0.01659733,-16288,-700,1308,-2928,-99,137
0.01659436,-16316,-696,1404,-2912,-150,173
0.01659721,-16372,-756,1512,-2928,-121,151
0.01659481,-16392,-700,1328,-2928,-226,220
0.01659548,-16400,-816,1496,-2912,-270,221
0.01659861,-16324,-604,1368,-2960,-350,357
0.01659861,-16440,-576,1328,-2928,-185,196
0.01659693,-16280,-668,1412,-2928,-229,339
0.01659449,-16360,-572,1172,-2912,-176,214
0.0165962,-16320,-720,1484,-2944,-114,158
0.0165962,-16292,-576,1124,-2896,-160,341
0.01659562,-16188,-708,1396,-2928,-89,173
0.01659562,-16356,-656,1640,-2928,-207,440
0.01660069,-16220,-604,1300,-2944,-226,310
0.01659377,-16252,-616,1280,-2944,-188,298
0.01660011,-16280,-440,1268,-2912,-165,436
0.01659452,-16408,-564,1328,-2912,-244,472
0.01659452,-16512,-616,1088,-2928,-112,390
0.01659509,-16336,-620,1332,-2912,-193,322
0.01659727,-16328,-532,1176,-2928,-133,174
0.01659576,-16320,-664,1508,-2928,-229,274
0.01659556,-16380,-508,1160,-2928,-211,353
0.01659556,-16316,-540,1128,-2912,-69,147
0.01659755,-16324,-492,1328,-2912,7,50
0.01659648,-16336,-628,1292,-2928,-62,249
0.01659331,-16356,-564,1068,-2944,-120,416
0.01659892,-16384,-684,1048,-2912,-193,239
0.01659556,-16408,-496,1204,-2896,-141,153
0.01655651,-16352,-532,1312,-2880,-177,198
0.01651654,-16364,-492,1220,-2944,-265,239
0.01658738,-16336,-556,1168,-2960,-277,239
0.01658738,-16380,-444,1012,-2928,-168,216
0.01658917,-16412,-564,1168,-2912,-216,288
0.01658917,-16484,-464,944,-2912,-97,237
0.01658637,-16328,-532,1116,-2960,-37,246
0.01658637,-16408,-476,1088,-2912,-79,191
0.01639744,-16264,-524,1172,-2928,-110,275
0.016589,-16276,-380,1116,-2880,-110,258
0.0165894,-16404,-524,1140,-2928,-130,227
0.01658985,-16348,-588,1080,-2928,-156,89
0.01658985,-16332,-536,1340,-2928,-243,343
0.0165904,-16380,-404,1028,-2928,-240,268
0.0165904,-16392,-532,1268,-2896,-143,83
0.01658881,-16352,-416,1124,-2912,-216,312
0.01658881,-16320,-472,1108,-2896,-217,168
0.01658908,-16472,-472,1020,-2976,-233,332
0.01658852,-16340,-464,784,-2928,-204,254
0.01658852,-16416,-496,780,-2928,-143,134
0.01658753,-16412,-456,944,-2928,-135,234
0.01658753,-16448,-456,1020,-2928,-178,218
0.01658848,-16428,-552,984,-2944,-190,167
0.01658848,-16380,-424,1124,-2896,-65,26
0.01658695,-16484,-420,1160,-2912,99,56
0.0165896,-16400,-548,1080,-2880,51,136
0.01658869,-16344,-584,1020,-2928,-11,246
0.01658894,-16364,-528,948,-2928,-21,234
0.01658894,-16456,-416,912,-2960,-9,224
0.01676208,-16436,-672,1012,-2928,-42,73
0.01658906,-16412,-596,1256,-2928,-126,67
0.01658913,-16460,-452,1148,-2912,-228,295
0.01633831,-16404,-392,940,-2896,-195,162
0.01659059,-16404,-436,968,-2912,-164,113
0.01658947,-16372,-516,1116,-2944,-192,235
0.01658889,-16272,-484,908,-2928,-660,-59
0.01658841,-16644,-316,1012,-2928,-500,519
0.01658936,-16324,-348,864,-2928,-175,125
0.01658655,-16404,-172,872,-2928,-85,97
0.01658911,-16288,-296,1128,-2896,-136,102
0.01658953,-16408,-400,1032,-2944,-76,114
0.01658961,-16384,-408,1060,-2928,-104,129
0.01658961,-16388,-420,912,-2928,-45,145
0.01658951,-16476,-252,964,-2928,-23,216
0.01658769,-16336,-512,1168,-2896,16,125
0.01658769,-16396,-544,1168,-2912,-273,484
0.01658913,-16460,-424,1212,-2912,-419,749
0.01659102,-16376,-272,844,-2896,-285,411
0.01659102,-16388,-168,760,-2896,-43,46
0.01659577,-16436,-448,996,-2912,2,-124
0.01659667,-16500,-436,1088,-2896,-110,106
0.01659667,-16436,-352,900,-2912,-80,132
0.01659843,-16416,-292,976,-2912,-94,195
0.01659689,-16352,-360,980,-2896,9,146
0.01659668,-16452,-412,1024,-2928,85,314
0.01659672,-16272,-432,928,-2896,35,119
0.01659672,-16400,-532,1028,-2896,-78,161
0.01659708,-16372,-392,1044,-2912,-147,267
0.0165977,-16436,-272,728,-2896,-136,253
0.01659929,-16464,-392,1036,-2912,-109,13
0.01659808,-16500,-440,984,-2912,-122,140
0.01659808,-16392,-400,1124,-2912,-116,161
0.01659392,-16384,-252,944,-2880,-176,213
0.01659753,-16404,-308,948,-2896,-181,213
0.01659767,-16392,-392,1012,-2912,-120,135
0.01659899,-16376,-348,1024,-2928,-139,205
0.01659576,-16472,-460,888,-2912,-172,204
0.01659495,-16380,-300,988,-2944,-109,166
0.01659495,-16380,-376,1000,-2912,-44,54
0.01663183,-16476,-460,1020,-2896,-30,169
0.0148046,-16276,-380,852,-2912,-72,219
0.0148046,-16444,-264,912,-2912,-73,262
0.0165962,-16348,-452,920,-2912,-40,54
0.0165962,-16428,-344,1076,-2928,-67,158
0.01659797,-16440,-360,1196,-2928,-182,392
0.01659797,-16432,-384,784,-2896,-212,201
0.0165985,-16392,-296,912,-2896,-103,260
0.0165985,-16316,-352,1028,-2896,-110,262
0.01644595,-16392,-308,828,-2912,-110,289
0.01677365,-16376,-428,1056,-2928,-131,184
0.01659477,-16448,-240,1036,-2896,-66,162
0.01659584,-16396,-320,940,-2912,-85,261
0.01659533,-16308,-244,904,-2880,-58,111
0.01659618,-16384,-380,876,-2896,-29,198
0.01659686,-16360,-328,1080,-2896,-91,237
0.01659675,-16292,-312,1136,-2912,-59,131
0.01659661,-16336,-384,900,-2880,-2,55
0.01659661,-16348,-380,1016,-2912,-68,206
0.01659713,-16332,-392,936,-2912,-105,124
0.01659713,-16376,-472,1104,-2896,-113,97
0.01659704,-16480,-348,964,-2912,-190,301
0.01659694,-16268,-400,684,-2896,-111,81
0.01659694,-16384,-392,944,-2912,-66,88
0.01659898,-16372,-496,1000,-2896,-88,141
0.01659451,-16304,-448,828,-2864,-121,222
0.01659468,-16412,-324,768,-2896,-90,94
0.01659641,-16280,-484,960,-2896,-16,-36
0.01659641,-16488,-472,1116,-2896,-48,139
0.01659759,-16460,-488,1028,-2912,-205,330
0.01659679,-16224,-340,804,-2880,-142,184
0.0165973,-16348,-376,856,-2880,-96,148
0.01659719,-16404,-392,1080,-2912,-41,129
0.01659817,-16488,-568,664,-2896,5,56
0.01659817,-16444,-464,1080,-2912,-89,176
0.01659757,-16408,-332,1008,-2912,-112,458
0.01659757,-16284,-240,796,-2944,-81,195
0.01659667,-16272,-584,1196,-2896,63,-39
0.01659667,-16388,-548,1060,-2896,-135,257
0.01656052,-16512,-400,900,-2848,-127,273
0.01658659,-16436,-360,888,-2912,-86,119
0.01658723,-16396,-336,876,-2928,-101,144
0.0165939,-16352,-300,1008,-2896,-129,209
0.01658797,-16392,-448,888,-2896,-31,64
0.01658573,-16432,-512,960,-2880,26,106
0.01658878,-16320,-484,860,-2896,57,80
0.01658878,-16428,-560,1124,-2880,-66,217
0.0165879,-16324,-648,1112,-2896,-79,239
0.0165879,-16296,-424,820,-2912,-67,311
0.01658561,-16412,-476,876,-2880,-83,129
0.01658684,-16420,-516,1120,-2880,-130,143
0.01658921,-16252,-440,916,-2880,-136,104
0.0165867,-16432,-452,932,-2928,-87,137
0.01658672,-16388,-552,816,-2912,-142,157
0.01658697,-16432,-416,744,-2896,-94,177
0.01658855,-16404,-452,708,-2880,-61,150
0.01658855,-16448,-552,924,-2928,-100,197
0.01658696,-16344,-480,884,-2896,-13,346
0.01658672,-16244,-412,924,-2896,-6,374
0.01658672,-16324,-456,1000,-2928,-63,207
0.01658885,-16444,-336,916,-2912,-78,189
0.01658886,-16396,-440,776,-2848,-15,248
0.01658886,-16368,-420,840,-2880,63,10
0.01658655,-16364,-368,888,-2864,128,228
0.01658655,-16364,-272,528,-2880,226,174
0.0165881,-16412,-552,1120,-2848,291,-160
0.01658919,-16420,-512,1080,-2896,74,70
0.01658919,-16376,-460,776,-2880,-17,151
0.01658828,-16440,-304,876,-2880,7,75
0.01658828,-16552,-292,672,-2864,94,35
0.0165869,-16404,-328,680,-2880,325,-49
0.0165869,-16332,-484,924,-2896,370,-83
0.01658626,-16380,-492,980,-2896,331,-7
0.01658626,-16356,-516,952,-2896,363,-111
0.01658871,-16400,-624,968,-2896,383,-44
0.01658871,-16336,-480,1152,-2896,420,145
0.01658833,-16200,-540,1124,-2896,351,252
0.01658753,-16332,-540,1060,-2896,366,-105
0.01658753,-16428,-604,1060,-2896,154,18
0.01658877,-16448,-480,844,-2880,72,66
0.01658818,-16336,-400,868,-2864,129,-212
0.01658818,-16428,-476,1000,-2896,49,-251
0.01694045,-16412,-488,964,-2896,90,-255
0.01658729,-16192,-604,960,-2880,197,-478
0.01658781,-16252,-728,1476,-2896,247,-696
0.01659348,-16340,-792,1536,-2912,136,-652
0.01659348,-16508,-788,1460,-2848,65,-209
0.01659296,-16340,-668,1332,-2864,59,-144
0.01659296,-16320,-516,1312,-2896,49,-229
0.01659284,-16408,-528,1268,-2864,222,-414
0.01659426,-16308,-600,1332,-2848,329,-261
0.01659363,-16328,-624,1568,-2896,255,-320
0.01659403,-16144,-808,1944,-2880,55,-160
0.01659435,-16400,-692,1352,-2864,-12,-94
0.01659435,-16416,-724,1744,-2880,20,-376
0.01478039,-16256,-664,1960,-2896,-267,-92
0.01659274,-16308,-552,1616,-2912,-382,-131
0.01659274,-16344,-444,1488,-2896,-314,-68
0.01659367,-16332,-504,1548,-2880,-222,-248
0.01659512,-16360,-412,1628,-2896,-179,-242
0.0165932,-16292,-620,1808,-2896,-223,-145
0.01659309,-16424,-340,1668,-2912,-283,-44
0.01659395,-16332,-432,1344,-2864,-51,-329
0.0165932,-16152,-544,1880,-2912,-20,-420
0.01610261,-16280,-756,2056,-2880,60,-398
0.01659323,-16256,-620,1776,-2864,-10,15
0.01659323,-16292,-608,1788,-2848,87,-25
0.01659275,-16256,-660,1840,-2880,17,-90
0.01659475,-16220,-664,1760,-2864,120,-88
0.01659475,-16152,-592,2028,-2880,70,-171
0.0165948,-16056,-568,1896,-2864,-153,-399
0.01659389,-16164,-628,1928,-2880,-75,-555
0.01659389,-16316,-644,1992,-2912,-47,-677
0.01659453,-16328,-904,2296,-2864,-63,-583
0.01659483,-16468,-856,2336,-2912,-96,18
0.01659483,-16312,-720,2176,-2880,-145,177
0.01659406,-16128,-716,1892,-2896,-94,222
0.01659406,-16124,-560,1872,-2880,115,-85
0.01659466,-16280,-588,2300,-2896,237,-124
0.01659466,-16104,-688,2308,-2864,60,206
0.01659184,-16116,-736,2140,-2864,-38,134
0.01659436,-16316,-772,2164,-2880,-32,-13
0.01659436,-16284,-648,2200,-2880,31,33
0.01659294,-16184,-696,2248,-2864,23,102
0.01659415,-16256,-788,2488,-2880,-19,157
0.01659415,-16160,-700,2228,-2864,-213,237
0.01659401,-16196,-548,2076,-2880,-117,86
0.01659487,-16088,-700,2324,-2864,47,19
0.01659487,-16228,-696,2348,-2864,-85,104
0.01659369,-16232,-648,2188,-2880,-97,108
0.01659342,-16236,-704,2200,-2896,24,95
0.01659342,-16224,-720,2280,-2880,47,163
0.01659389,-16220,-604,2284,-2880,26,216
0.01659453,-16104,-684,2368,-2880,-217,120
0.01659575,-16368,-464,2064,-2864,-175,49
0.01659116,-16436,-524,2104,-2848,-84,-5
0.01659285,-16264,-720,2168,-2880,-58,133
0.0165957,-16064,-676,2392,-2864,-135,53
0.01659341,-16284,-564,2328,-2896,-180,168
0.01659415,-16160,-580,2304,-2880,-95,128
0.01659518,-16168,-476,2248,-2880,-56,283
0.01659518,-16220,-536,2028,-2880,-13,126
0.01659465,-16236,-808,2628,-2864,80,5
0.01659315,-16164,-596,2572,-2864,-92,449
0.01659171,-16144,-624,1968,-2880,-248,407
0.01659405,-16152,-516,1968,-2832,-133,163
0.01659519,-16132,-624,2356,-2848,-74,2
0.01659527,-16232,-584,2364,-2864,-163,-82
0.0165937,-16316,-620,2272,-2880,-112,186
0.01659384,-16176,-668,2372,-2848,-195,186
0.01659282,-16272,-768,2216,-2848,-66,211
0.01659369,-16084,-736,2256,-2848,-80,294
0.01645192,-16148,-588,2316,-2864,-46,151
0.01659367,-16212,-692,2368,-2880,-151,197
0.01659514,-16328,-576,1992,-2864,-56,246
0.01659514,-16220,-648,2144,-2880,43,77
0.01659411,-16100,-632,2412,-2880,-64,190
0.01659422,-16228,-572,2256,-2864,-164,225
0.01659469,-16216,-508,2188,-2880,-29,116
0.01659354,-16192,-588,2060,-2864,-20,128
0.01659434,-16208,-724,2128,-2848,-33,122
0.01659434,-16196,-736,2264,-2864,-111,144
0.01678754,-16160,-612,2136,-2864,-130,158
0.01659411,-16192,-784,2352,-2832,-107,316
0.01659357,-16196,-684,2204,-2864,-122,233
0.01626072,-16212,-628,2184,-2896,-61,129
0.01626072,-16284,-836,2348,-2896,-81,190
0.01659372,-16268,-776,2244,-2864,-94,125
0.01659372,-16220,-796,2248,-2848,-86,110
0.01658781,-16112,-692,2184,-2832,-192,342
0.01658765,-16216,-528,2124,-2896,-75,141
0.01658818,-16216,-492,2060,-2848,-40,174
0.01658818,-16292,-700,2008,-2848,-9,40
0.01658745,-16284,-912,2316,-2848,-2,-73
0.01658851,-15916,-1324,2568,-2832,-492,-437
0.01658842,-16476,-648,2132,-2832,-212,-52
0.01658842,-16244,-392,1912,-2848,-247,-3
0.01659031,-16096,-692,2412,-2848,39,-126
0.01658787,-16144,-764,2496,-2864,-68,55
0.01658778,-16132,-756,2328,-2848,-261,237
0.01658547,-16236,-560,2200,-2880,-217,199
0.01658888,-16172,-604,2168,-2864,-80,92
0.01658895,-16152,-536,2324,-2864,-91,230
0.01658895,-16256,-596,2352,-2848,-56,244
0.01658912,-16208,-652,2324,-2848,-62,5
0.0165893,-16304,-652,2396,-2832,-31,127
0.0165893,-16216,-676,2124,-2832,-115,256
0.01658597,-16084,-620,2300,-2864,-151,219
0.01658706,-16140,-812,2232,-2864,-100,-1
0.01643193,-16308,-676,2328,-2864,-69,88
0.01643193,-16252,-664,2456,-2864,-14,201
0.01658681,-16156,-720,2380,-2864,-56,236
0.01658799,-16084,-668,2376,-2864,-167,301
0.01658529,-16204,-584,2176,-2848,-117,78
0.01643285,-16428,-552,2172,-2912,20,61
0.01658855,-16224,-724,2288,-2896,18,113
0.01658855,-16284,-776,2312,-2880,94,11
0.0165887,-16144,-644,2572,-2864,-29,301
0.01658602,-16080,-652,2184,-2848,-253,308
0.01658602,-16180,-660,2172,-2864,-80,173
0.01658787,-16192,-588,2360,-2848,-85,122
0.01658787,-16268,-600,2228,-2848,-111,83
0.01658784,-16240,-748,2428,-2832,-122,131
0.01673217,-16140,-676,2224,-2864,-214,352
0.01673217,-16168,-468,2188,-2864,13,430
0.01658735,-16204,-456,2172,-2832,-15,289
0.01658735,-16216,-608,2080,-2848,59,35
0.01658948,-16212,-720,2200,-2864,-67,72
0.01658587,-16264,-636,2364,-2832,-184,319
0.01658587,-16248,-592,2108,-2880,-157,81
0.01658828,-16184,-740,2212,-2848,-100,94
0.01658828,-16280,-556,2252,-2864,-52,221
0.01658542,-16192,-608,2208,-2864,-67,181
0.01674201,-16076,-772,2356,-2880,-137,90
0.01674201,-16312,-572,1932,-2880,-55,115
0.01658745,-16228,-576,2184,-2864,-15,162
0.01658837,-16088,-788,2216,-2848,-68,29
0.01658837,-16256,-732,2472,-2864,-120,46
0.01658835,-16228,-624,2360,-2864,-175,191
0.01658643,-16232,-612,2172,-2864,-105,94
0.01668329,-16264,-664,2460,-2864,-131,127
0.01658882,-16304,-552,2256,-2864,-64,173
0.0165873,-16188,-552,2528,-2864,-80,0
0.01658843,-16196,-648,2200,-2848,-150,173
0.01658843,-16236,-524,2372,-2848,-113,293
0.01658682,-16272,-488,2224,-2896,-49,118
0.01658852,-16176,-788,2456,-2864,-109,-10
0.01658724,-16220,-728,2416,-2864,-98,171
0.01658737,-16188,-604,2004,-2864,-116,130
0.01659036,-16228,-464,2252,-2864,-63,-57
0.01659036,-16220,-668,2648,-2880,-144,227
0.01658885,-16124,-740,2236,-2848,-279,298
0.01658973,-16152,-508,2060,-2832,-120,228
0.01658701,-16184,-540,2224,-2832,-79,74
0.01658758,-16344,-608,2520,-2832,-61,104
0.01658758,-16208,-584,2344,-2864,-70,271
0.01658866,-16112,-620,2204,-2848,-115,252
0.01658615,-16172,-664,2232,-2832,-32,166
0.01658615,-16100,-652,2336,-2864,-83,230
0.0165873,-16340,-560,2252,-2848,-40,98
0.01658768,-16164,-700,2316,-2832,-61,102
0.01658768,-16196,-596,2288,-2880,-129,331
0.01658712,-16116,-740,2124,-2816,-152,140
0.01658937,-16236,-552,2224,-2864,-97,78
0.01658937,-16224,-548,2284,-2848,-57,131
0.016587,-16212,-740,2152,-2864,-128,229
0.01658727,-16272,-708,2284,-2864,-143,370
0.01658488,-16304,-556,2316,-2864,-203,278
0.01659157,-16164,-608,2224,-2896,-115,51
0.01658854,-16160,-732,2256,-2832,-67,30
0.0165859,-16244,-540,2304,-2848,-69,142
0.0165859,-16268,-476,2208,-2848,-53,70
0.01658724,-16136,-740,2188,-2864,-43,-57
0.01658666,-16252,-704,2560,-2848,-49,51
0.01658843,-16184,-672,2344,-2832,-128,170
0.0168999,-16036,-528,2328,-2848,-159,186
0.01658992,-16184,-552,2348,-2848,-108,172
0.01658992,-16184,-484,2336,-2848,-47,26
0.01650421,-16152,-596,2460,-2864,-104,79
0.01658924,-16204,-608,2288,-2848,-147,281
0.01658955,-16232,-580,2120,-2848,-99,88
0.01658849,-16148,-664,2176,-2848,-61,71
0.01658849,-16248,-648,2104,-2864,-46,131
0.0165882,-16296,-700,2500,-2832,55,31
0.01658811,-16172,-616,2408,-2832,-118,262
0.01658811,-16284,-616,2336,-2832,-151,328
0.01658745,-16048,-512,2352,-2864,-79,217
0.01658922,-16192,-528,2120,-2816,-9,67
0.01658582,-16160,-696,2516,-2848,-66,100
0.01658808,-16356,-652,2320,-2816,-131,220
0.01658444,-16020,-728,2336,-2848,-119,132
0.01658444,-16072,-576,2412,-2864,-109,142
0.01658788,-16156,-660,2180,-2880,-176,188
0.01658856,-16196,-572,2176,-2864,-72,202
0.01658856,-16184,-636,2308,-2848,-63,109
0.01658724,-16200,-560,2340,-2864,-142,192
0.01658806,-16172,-712,2156,-2848,-8,184
0.01658811,-16244,-656,2260,-2864,-46,162
0.01658809,-16144,-660,2420,-2848,-42,17
0.01658809,-16272,-712,2552,-2832,-31,101
0.01658677,-16192,-672,2376,-2832,-105,217
0.01658677,-16168,-688,2176,-2864,-214,125
0.01658809,-16316,-600,2232,-2832,-108,61
0.01658809,-16144,-732,2468,-2848,-159,114
0.01658786,-16240,-652,2328,-2864,-149,176
0.01658675,-16184,-748,2292,-2832,-51,58
0.01658675,-16240,-720,2264,-2832,-76,206
0.01658482,-16224,-684,2264,-2848,2,209
0.01658595,-16096,-756,2384,-2832,-57,118
0.01658595,-16344,-656,2424,-2832,-135,213
0.01658646,-16152,-688,2348,-2848,-153,208
0.01658673,-16184,-556,2288,-2832,-85,190
0.01658735,-16112,-768,2432,-2816,-188,266
0.01659011,-16064,-712,2332,-2832,-196,209
0.01658919,-16156,-612,2468,-2832,-209,150
0.01658222,-16180,-572,2248,-2880,-237,311
0.01658984,-16232,-748,2316,-2832,-91,259
0.01658984,-16084,-788,2464,-2832,-178,338
0.01658829,-16184,-444,2324,-2848,-299,477
0.01658781,-16392,-416,2052,-2848,-116,495
0.01658781,-16148,-584,2048,-2800,-90,520
0.01662897,-16160,-672,2244,-2864,-253,547
0.01662897,-16356,-548,2160,-2816,-300,466
0.01658652,-16352,-528,2296,-2848,-345,315
0.01658652,-16192,-748,2352,-2832,-726,438
0.01658847,-16260,-632,1652,-2864,-247,443
0.01658965,-16400,-632,2184,-2848,-275,752
0.0165875,-16172,-588,1884,-2800,-305,520
0.01658655,-16180,-656,2192,-2832,-283,569
0.01658655,-16440,-456,1940,-2848,-308,830
0.0165891,-16232,-360,1924,-2832,-148,605
0.01658931,-16232,-308,2072,-2864,-155,355
0.01658769,-16296,-364,2004,-2864,-296,867
0.01641296,-16444,-308,1524,-2832,-263,736
0.01641296,-16360,-484,1516,-2832,-199,267
0.01658827,-16264,-392,1704,-2848,-174,295
0.01658793,-16264,-388,1916,-2832,-256,475
0.01658813,-16288,-228,1780,-2832,-270,638
0.01658688,-16312,-300,1636,-2816,-240,482
0.01658831,-16320,-320,1604,-2848,-189,441
0.01658831,-16296,-392,1748,-2864,-244,572
0.01675389,-16272,-292,1760,-2864,-512,1210
0.01658839,-16316,-288,1616,-2816,-500,1034
0.01658839,-16356,-268,1588,-2832,-577,853
0.01658843,-16268,-164,1412,-2832,-500,513
0.01658852,-16408,-208,1448,-2848,-560,661
0.01639774,-16448,-120,1408,-2832,-446,885
0.01639774,-16360,-256,1412,-2848,-498,891
0.01658582,-16208,-296,1584,-2816,-301,862
0.01658793,-16236,428,1716,-2832,-639,1307
0.01658716,-16328,248,1200,-2816,-548,1353
0.01658911,-16244,44,860,-2832,-516,1018
0.01652855,-15884,512,1080,-2800,-253,700
0.016587,-16316,224,956,-2832,-284,504
0.016587,-16544,24,972,-2864,-361,482
0.01658668,-16344,92,976,-2800,-429,609
0.0165879,-16488,16,832,-2832,-413,515
0.01658832,-16420,-60,864,-2848,-417,512
0.0165871,-16432,156,932,-2832,-395,529
0.01658796,-16384,212,820,-2848,-410,405
0.01658484,-16352,128,568,-2816,-297,217
0.01658969,-16428,56,812,-2800,-299,340
0.01658518,-16412,-52,816,-2848,-307,467
0.01658848,-16384,16,772,-2832,-327,333
0.01658762,-16488,224,836,-2816,-355,456
0.01658762,-16392,224,684,-2816,-298,482
0.01658406,-16328,116,608,-2864,-193,327
0.01658922,-16404,0,900,-2816,-106,412
0.01658922,-16292,28,772,-2832,-277,506
0.01658778,-16488,132,788,-2864,-339,466
0.01658743,-16372,120,744,-2848,-371,514
0.01658743,-16516,220,516,-2832,-304,441
0.01658908,-16384,208,560,-2864,-241,368
0.01658895,-16436,124,516,-2816,-246,229
0.01658583,-16416,260,656,-2816,-179,119
0.01658583,-16500,196,760,-2848,-146,325
0.01658619,-16404,316,408,-2800,-227,377
0.01640993,-16460,244,676,-2832,-67,148
0.01658852,-16516,192,824,-2816,-75,196
0.01658798,-16376,244,660,-2848,-168,442
0.01658759,-16404,304,600,-2816,-133,132
0.01658833,-16476,132,704,-2816,-243,161
0.01658734,-16380,128,768,-2848,-301,415
0.01658734,-16492,212,332,-2848,-261,463
0.01658701,-16524,296,512,-2832,-52,218
0.01658701,-16440,208,668,-2816,-128,157
0.0165865,-16388,176,596,-2816,-350,518
0.01658857,-16332,344,460,-2800,-316,415
0.01658857,-16512,480,388,-2816,-175,392
0.01658762,-16340,424,244,-2816,-69,173
0.01659096,-16408,264,504,-2832,-35,72
0.01658804,-16400,256,568,-2832,-164,362
0.01658857,-16408,280,408,-2864,-192,220
0.01658857,-16468,428,408,-2832,-134,125
0.01658797,-16448,348,324,-2848,-113,156
0.01658797,-16432,88,584,-2848,-112,115
0.01658857,-16380,268,520,-2800,-241,593
0.01658752,-16476,260,328,-2832,-182,226
0.01658752,-16388,380,420,-2800,-164,97
0.01658665,-16376,296,408,-2832,-117,0
0.01659081,-16492,84,468,-2832,-74,59
0.01659081,-16388,284,652,-2848,-147,196
0.01658692,-16436,380,336,-2816,-112,100
0.01658793,-16372,284,432,-2848,-55,-88
0.01789388,-16476,232,572,-2816,-56,198
0.01789388,-16456,316,336,-2848,-195,381
0.01658689,-16468,276,360,-2816,-132,158
0.01658689,-16424,292,332,-2816,-107,113
0.01658847,-16476,268,552,-2816,-87,217
0.01658847,-16344,152,648,-2816,-172,388
0.01658698,-16352,468,484,-2832,-68,58
0.01658698,-16436,352,468,-2800,-101,95
0.01658691,-16396,204,600,-2848,-109,-128
0.01658691,-16488,136,584,-2784,-246,-49
0.01658727,-16440,324,540,-2832,-279,285
0.016566,-16412,420,220,-2816,-142,237
0.01661071,-16392,268,232,-2832,-38,37
0.0165876,-16496,200,608,-2816,56,71
0.0165876,-16404,296,692,-2768,-78,376
0.01658806,-16452,332,392,-2800,-103,240
0.01658806,-16544,320,460,-2816,-74,135
0.01658762,-16404,376,512,-2832,-203,182
0.01658977,-16520,376,540,-2816,-176,227
0.01658977,-16588,380,348,-2816,-63,170
0.01658866,-16428,260,496,-2848,-83,9
0.01681139,-16592,352,684,-2848,-63,170
0.01658727,-16468,356,312,-2832,-261,387
0.0165878,-16456,348,252,-2816,-50,135
0.01658586,-16496,296,556,-2832,-42,129
0.01658711,-16488,396,656,-2784,-106,257
0.0165867,-16456,348,516,-2800,-160,153
0.0164241,-16428,372,408,-2816,-76,29
0.01675324,-16504,236,552,-2832,-126,153
0.01658944,-16440,332,672,-2848,-49,173
0.0165893,-16308,604,408,-2832,10,204
0.0165893,-16260,444,328,-2816,44,158
0.01659023,-16564,216,540,-2784,-71,147
0.01658781,-16408,288,208,-2816,-207,280
0.01658676,-16556,444,320,-2800,-88,203
0.01658676,-16380,208,520,-2800,-64,-12
0.01658753,-16524,256,264,-2816,-117,214
0.01658825,-16544,384,332,-2816,-120,233
0.01658825,-16616,364,540,-2800,-128,243
0.01658705,-16284,352,320,-2816,-79,189
0.01475437,-16316,160,644,-2832,-93,103
0.01658605,-16332,408,460,-2816,-102,281
0.01658605,-16404,260,368,-2816,-141,191
0.01632654,-16504,192,648,-2800,-60,112
0.0165907,-16352,252,544,-2832,-198,434
0.0165907,-16572,432,404,-2816,-186,334
0.01658826,-16448,440,220,-2832,-195,328
0.01658815,-16408,360,404,-2800,-127,191
0.01658823,-16500,312,428,-2832,-140,262
0.0165844,-16532,336,368,-2816,-122,206
0.01658212,-16516,432,352,-2832,-164,180
0.01659201,-16396,348,372,-2816,-173,103
0.01658691,-16388,284,432,-2768,-134,64
0.01658663,-16556,268,556,-2800,-126,248
0.0165883,-16464,356,348,-2800,-150,50
0.0165883,-16532,344,356,-2816,-282,102
0.01658819,-16504,396,344,-2800,-213,171
0.01658715,-16340,376,616,-2848,-131,57
0.01658757,-16488,260,228,-2800,-249,136
0.01658518,-16468,372,224,-2800,-90,103
0.01658518,-16512,440,364,-2832,-85,103
0.01658784,-16552,268,404,-2800,-112,196
0.01658784,-16504,336,280,-2816,-144,180
0.0165892,-16420,336,336,-2800,-67,19
0.01658632,-16552,280,468,-2816,-64,103
0.0165893,-16500,392,396,-2816,-162,204
0.01658909,-16488,500,412,-2832,-63,150
0.01658909,-16496,300,464,-2800,-82,108
0.0165872,-16372,324,348,-2800,-16,69
0.0165872,-16340,292,572,-2800,-117,135
0.01659025,-16520,368,368,-2816,-80,149
0.01658665,-16436,388,428,-2768,-5,134
0.01658937,-16428,236,592,-2832,-43,129
0.01658794,-16428,336,416,-2832,-122,300
0.01658794,-16412,436,428,-2784,-122,173
0.01659025,-16380,316,376,-2800,-123,98
0.01658689,-16480,408,348,-2800,-99,189
0.01658927,-16580,400,456,-2800,-79,151
0.01658713,-16412,292,396,-2848,-77,117
0.01658859,-16384,396,396,-2816,-81,47
0.01658894,-16568,260,248,-2800,-31,70
0.01658764,-16376,268,620,-2816,37,-39
0.01658764,-16516,416,656,-2768,39,239
0.01658902,-16404,328,392,-2784,-51,258
0.01658614,-16424,376,284,-2816,11,173
0.0165893,-16428,264,244,-2816,63,62
0.01658691,-16512,268,580,-2816,-27,175
0.01658691,-16472,132,704,-2800,-121,353
0.01658908,-16380,468,236,-2832,-200,233
0.01658908,-16512,272,256,-2848,-8,19
0.01658753,-16396,248,592,-2816,53,-50
0.01659004,-16480,432,580,-2800,-99,273
0.01659004,-16432,352,340,-2832,-134,283
0.01658729,-16340,440,412,-2784,1,26
0.01658729,-16560,292,500,-2816,26,18
0.01658703,-16576,228,400,-2784,-28,220
0.01658703,-16496,232,336,-2784,-11,68
0.01658868,-16424,200,412,-2816,-10,197
0.01658868,-16480,376,200,-2800,26,182
0.01658697,-16460,268,440,-2784,18,41
0.01664725,-16456,284,724,-2800,-88,103
0.01664725,-16440,344,380,-2816,-48,390
0.01664725,-16388,280,476,-2784,-140,164
0.01659021,-16500,352,348,-2816,-163,233
0.01658825,-16424,316,492,-2800,-16,137
0.01658817,-16524,208,612,-2784,-12,143
0.01658869,-16484,188,588,-2832,-60,213
0.01658869,-16444,364,292,-2800,-93,165
0.01658939,-16524,212,384,-2784,-50,96
0.01658939,-16484,332,508,-2832,-39,174
0.01658624,-16524,248,420,-2816,-67,214
0.01658624,-16368,324,292,-2800,-83,142
0.01658546,-16412,200,476,-2800,-60,133
0.01695964,-16520,296,380,-2848,-90,159
0.01695964,-16468,332,416,-2784,-132,192
0.01658779,-16420,248,500,-2784,-75,100
0.01658779,-16504,284,432,-2784,-74,97
0.01645746,-16264,392,512,-2816,-54,134
0.01645746,-16524,208,456,-2800,-123,165
0.01659519,-16500,236,556,-2768,-33,106
0.01659429,-16528,176,528,-2800,-90,79
0.01659429,-16508,400,448,-2784,-132,236
0.01659579,-16444,268,464,-2784,-65,156
0.01659247,-16300,260,348,-2768,-110,121
0.01659315,-16500,264,528,-2800,-56,202
0.01659315,-16480,224,376,-2800,-77,162
0.01659392,-16524,296,292,-2784,-78,184
0.01659392,-16464,204,472,-2784,-6,50
0.0165943,-16520,236,620,-2784,-63,242
0.01659362,-16500,248,508,-2768,-111,311
0.01659413,-16628,468,200,-2800,-99,205
0.01659268,-16476,264,404,-2816,-38,92
0.01659362,-16440,368,416,-2800,50,141
0.01659367,-16364,216,480,-2784,-10,76
0.01659367,-16456,160,488,-2768,-146,160
0.01659181,-16440,324,488,-2784,-139,215
0.01659357,-16344,224,388,-2800,15,-10
0.01659501,-16456,144,508,-2816,-64,149
0.01659501,-16344,256,392,-2784,-38,201
0.01659334,-16496,204,516,-2784,-36,129
0.01659334,-16556,228,372,-2816,-49,158
0.01659359,-16432,296,420,-2784,-70,91
0.01659359,-16404,228,644,-2784,-118,155
0.01659325,-16588,268,280,-2832,-173,268
0.01659325,-16392,192,532,-2784,-143,30
0.01659478,-16504,92,512,-2768,-143,118
0.01659478,-16568,248,380,-2784,-173,338
0.01659576,-16496,372,220,-2800,18,42
0.01659337,-16396,-72,904,-2832,-27,-95
0.01659337,-16500,400,660,-2784,-189,407
0.01659249,-16416,412,416,-2784,-146,208
0.01659249,-16340,228,376,-2800,-27,53
0.01659327,-16496,120,416,-2800,-39,53
0.01659327,-16532,284,532,-2784,-69,242
0.01659464,-16404,224,396,-2816,-126,115
0.01659463,-16460,172,380,-2800,-63,4
0.01659273,-16504,176,612,-2800,-191,424
0.0165939,-16404,336,312,-2816,-175,422
0.0165939,-16416,276,464,-2784,-78,98
0.01659493,-16468,388,296,-2800,-34,177
0.01659179,-16472,312,408,-2768,-46,196
0.01659179,-16420,180,308,-2784,-63,136
0.01659404,-16488,216,236,-2768,-9,16
0.01659404,-16568,452,292,-2768,21,-60
0.01659402,-16552,552,80,-2800,227,-203
0.01659174,-16332,92,436,-2800,453,-97
0.01659246,-16360,72,324,-2816,485,358
0.01659246,-16344,176,208,-2800,424,143
0.01612318,-16496,96,312,-2768,372,-566
0.01612318,-16296,-104,796,-2768,394,-556
0.01659272,-16584,216,852,-2784,30,-488
0.01659272,-16476,348,476,-2784,236,72
0.01658892,-16364,216,680,-2832,367,-319
0.016589,-16376,72,784,-2768,245,-475
0.016589,-16376,-48,736,-2784,262,-397
0.01658725,-16432,28,780,-2832,286,-380
0.01658725,-16260,-132,956,-2784,244,-519
0.01658517,-16492,-24,876,-2800,189,-572
0.016586,-16340,-84,1104,-2800,127,-548
0.01658842,-16460,-232,956,-2800,129,-546
0.01658842,-16420,-268,828,-2784,254,-549
0.0165858,-16364,-208,1260,-2768,225,-458
0.01658204,-16480,-124,988,-2768,134,-287
0.01658204,-16352,-292,1072,-2800,204,-463
0.01658816,-16220,-300,1076,-2784,36,-338
0.01658922,-16420,-292,1036,-2784,187,-769
0.01659255,-16368,-452,1548,-2800,197,-614
0.01659255,-16284,-372,1520,-2800,76,-150
0.01658808,-16320,-316,1236,-2800,25,-180
0.01658682,-16316,-288,1384,-2752,30,-287
0.01658477,-16408,-364,1280,-2768,150,-480
0.01658608,-16324,-324,1416,-2800,151,-499
0.01658608,-16304,-448,1644,-2800,181,-654
0.01658674,-16328,-388,1668,-2752,25,-374
0.01658674,-16448,-360,1512,-2768,96,-391
0.01658711,-16124,-236,1576,-2800,166,-341
0.01658711,-16124,-512,1784,-2768,336,-504
0.01658601,-16264,-624,1868,-2784,120,-615
0.01658678,-16404,-628,1676,-2800,114,-499
0.01658678,-16472,-432,1876,-2752,173,-299
0.016586,-16388,-348,1824,-2816,243,-344
0.01658748,-16276,-480,1828,-2768,163,-307
0.01658475,-16364,-500,1900,-2816,321,-277
0.01658475,-16200,-420,2220,-2784,259,-509
0.01658863,-16300,-312,1916,-2768,165,-310
0.01674748,-16232,-568,2148,-2768,213,-252
0.01658657,-16224,-524,2152,-2784,110,0
0.0165877,-16168,-644,1916,-2768,73,-128
0.0165877,-16200,-524,2160,-2768,91,-133
0.01658813,-16192,-508,1980,-2800,-46,-135
0.01658813,-16236,-640,2060,-2768,-1,-131
0.01658768,-16088,-660,2232,-2768,-122,144
0.01658768,-16204,-580,2108,-2800,-61,-34
0.01658794,-16300,-476,2324,-2768,2,37
0.01659635,-16200,-292,2044,-2768,49,42
0.01659635,-16124,-400,2024,-2784,111,10
0.01659756,-16156,-688,2288,-2768,227,-125
0.01659521,-16216,-456,2172,-2784,155,54
0.01659493,-16268,-636,2224,-2784,244,-83
0.01659493,-16164,-632,2376,-2800,168,172
0.01659601,-16292,-688,2128,-2784,165,211
0.01659601,-16052,-556,2180,-2768,166,103
0.01659367,-16224,-624,2232,-2768,138,136
0.01659504,-16264,-536,2332,-2752,240,130
0.01659504,-16064,-580,2316,-2784,172,124
0.01659508,-16188,-500,2304,-2768,-91,225
0.01659508,-16172,-472,2196,-2752,-66,122
0.01659635,-16176,-508,2200,-2768,-82,113
0.01659406,-16172,-540,1972,-2800,-50,109
0.0165953,-16272,-528,2276,-2800,-63,-6
0.0165953,-16208,-556,2288,-2784,-154,142
0.01659947,-16160,-688,2256,-2752,-91,-111
0.01659688,-16180,-472,2536,-2768,-101,95
0.01659688,-16184,-496,2376,-2752,-45,337
0.01659619,-16248,-380,2164,-2784,35,66
0.01659619,-16340,-424,2172,-2800,139,153
0.01835506,-16224,-428,2320,-2768,74,283
0.01659536,-16084,-436,2224,-2768,27,215
0.01659584,-16152,-648,2204,-2784,42,68
0.01659584,-16160,-588,2384,-2752,-35,14
0.01659622,-16312,-512,2104,-2768,-19,103
0.01659684,-16232,-612,2300,-2784,60,214
0.01659492,-16236,-716,2228,-2768,-6,207
0.01659537,-16128,-620,2276,-2784,-101,219
0.01659506,-16232,-620,2196,-2768,-2,259
0.01659461,-16160,-504,2140,-2800,64,300
0.01659617,-16380,-568,2364,-2800,86,304
0.01659554,-16208,-600,2320,-2784,-16,286
0.01659622,-16260,-548,2368,-2752,-2,219
0.01659622,-16216,-588,2312,-2752,-58,130
0.01659797,-16232,-560,2152,-2784,2,56
0.01659386,-16140,-688,2252,-2784,-64,-31
0.01659373,-16176,-664,2280,-2768,-111,146
0.01659544,-16192,-596,2084,-2784,-100,164
0.01659544,-16440,-456,2180,-2752,85,21
0.01659703,-16112,-556,2440,-2800,86,316
0.01659449,-16172,-680,2164,-2752,-63,325
0.01659502,-16224,-600,2060,-2768,10,268
0.01659502,-16212,-460,2144,-2768,82,375
0.01659388,-16140,-604,2336,-2768,76,327
0.01659388,-16076,-552,2416,-2752,-19,263
0.01659546,-16336,-492,2132,-2768,-7,273
0.01659267,-16260,-500,1944,-2768,53,284
0.01659267,-16232,-656,2280,-2752,101,89
0.01659523,-16372,-540,2172,-2768,-20,170
0.01659523,-16256,-596,2252,-2768,-154,421
0.01659539,-16112,-708,1988,-2752,-138,207
0.01659539,-16328,-712,2108,-2784,2,234
0.01659646,-16240,-544,2416,-2800,27,219
0.01659646,-16048,-556,2452,-2736,-196,353
0.0165953,-16296,-360,1992,-2768,-76,254
0.01659635,-16200,-624,2196,-2800,-68,349
0.01659635,-16216,-564,1952,-2768,-61,313
0.01659493,-16156,-528,2048,-2768,-92,356
0.01659493,-16240,-624,2108,-2816,-47,166
0.01659954,-16248,-556,2020,-2752,-50,94
0.01659691,-16096,-632,2196,-2768,-3,67
0.01659517,-16128,-696,2304,-2736,-201,274
0.01658952,-16248,-668,2120,-2768,-228,21
0.01659594,-16140,-648,2116,-2768,-191,23
0.01659594,-16256,-604,2104,-2736,-139,-4
0.01618903,-16392,-620,2420,-2768,-111,242
0.01700379,-16196,-552,2024,-2752,-197,444
0.01659573,-16072,-536,1968,-2784,-145,101
0.01659845,-16204,-616,2108,-2768,-25,101
0.01659845,-16280,-472,2184,-2752,-70,275
0.01659487,-16276,-680,2064,-2768,-48,167
0.01659487,-16364,-828,2020,-2784,-56,323
0.01659696,-16208,-708,2088,-2784,-59,270
0.01659609,-16148,-708,2168,-2768,-172,161
0.01659609,-16144,-812,2148,-2752,-89,249
0.01659429,-16156,-744,2100,-2768,-196,126
0.01659559,-16316,-592,1916,-2768,-237,214
0.01659514,-16316,-652,2012,-2752,-156,110
0.01659514,-16208,-732,1960,-2736,-90,137
0.0164203,-16260,-664,2116,-2736,-47,137
0.0165973,-16228,-672,2248,-2768,-24,129
0.01659561,-16136,-672,2068,-2736,-35,137
0.01659268,-16276,-660,2068,-2752,-68,122
0.01473814,-16244,-644,2040,-2752,-61,173
0.01659718,-16284,-692,2104,-2736,-102,305
0.01659718,-16176,-696,2056,-2752,-169,258
0.01659649,-16344,-568,1992,-2752,-85,238
0.01659656,-16292,-692,2080,-2768,-44,170
0.01659656,-16312,-704,2020,-2768,-49,124
0.01659692,-16340,-700,2228,-2736,-95,315
0.01659836,-16240,-652,1948,-2752,-133,465
0.01659836,-16184,-748,1980,-2752,-188,17
0.01659715,-16160,-500,2560,-2768,-78,352
0.01659562,-16284,-444,1972,-2768,-123,100
0.01659562,-16156,-624,2336,-2752,-17,-39
0.01659395,-16116,-644,2312,-2720,-199,342
0.01659395,-16376,-696,1968,-2752,-158,288
0.01659509,-16224,-480,2028,-2784,-84,190
0.01659589,-16048,-528,2240,-2736,-193,499
0.01659589,-16360,-776,2012,-2768,-224,727
0.01659578,-16324,-740,2012,-2752,-246,494
0.01659516,-16228,-564,1740,-2752,-205,384
0.01659268,-16320,-708,1688,-2768,15,57
0.01659861,-16248,-776,1928,-2768,12,161
0.01659454,-16108,-688,1964,-2720,-68,-66
0.01659625,-16376,-648,1968,-2768,-181,50
0.01659611,-16420,-592,2012,-2736,-98,300
0.01609049,-16380,-640,2012,-2768,-116,429
0.01659381,-16272,-612,1956,-2768,-102,209
0.01659381,-16264,-428,1808,-2768,-71,254
0.01658699,-16156,-572,1788,-2736,-42,86
0.01659658,-16224,-756,1848,-2736,-75,-31
0.01659658,-16196,-672,2000,-2736,-119,-8
0.01659155,-16276,-736,2004,-2752,-120,77
0.01659865,-16236,-604,2012,-2736,-135,156
0.01659625,-16256,-664,1868,-2768,-107,211
0.01528905,-16140,-656,1988,-2752,9,90
0.01790391,-16188,-596,1932,-2720,-67,111
0.01703808,-16336,-664,2124,-2768,-8,122
0.0165945,-16220,-532,1980,-2784,-40,243
0.01659342,-16284,-716,1980,-2736,-63,204
0.01659777,-16224,-652,1968,-2768,-96,104
0.01659766,-16204,-708,2032,-2736,-128,247
0.01659766,-16072,-736,1848,-2736,-85,73
0.01673087,-16356,-688,2156,-2704,-9,-88
0.01659743,-16368,-636,2068,-2704,-110,349
0.01659665,-16192,-764,1848,-2736,-154,329
0.01659665,-16236,-512,1844,-2736,-11,135
0.01659507,-16312,-748,2168,-2752,36,220
0.01659485,-16296,-852,2116,-2736,-126,579
0.01659181,-16208,-520,1832,-2768,-125,577
0.01659628,-16124,-420,1876,-2768,-85,252
0.01659628,-16192,-532,1772,-2752,-40,93
0.01659225,-16324,-656,1784,-2752,-49,125
0.01659793,-16316,-640,1836,-2752,-56,168
0.01659475,-16184,-616,1876,-2736,-152,231
0.01659487,-16200,-708,1904,-2768,-96,287
0.01659487,-16124,-628,1784,-2752,-50,186
0.01659614,-16400,-616,1720,-2768,-56,145
0.01659567,-16340,-572,2060,-2736,10,148
0.01659567,-16156,-788,2132,-2768,-54,145
0.01659648,-16356,-728,1808,-2736,-103,167
0.01659347,-16288,-524,1876,-2736,-73,141
0.01659611,-16212,-700,1888,-2736,-132,115
0.01659646,-16336,-584,1972,-2736,-129,177
0.01611577,-16292,-616,1840,-2736,-82,112
0.01611577,-16256,-576,1904,-2720,-83,100
0.01659621,-16372,-652,1860,-2736,-117,216
0.016596,-16304,-620,1676,-2768,8,144
0.01658512,-16332,-608,1948,-2752,-55,149
0.01658462,-16100,-624,2032,-2736,-114,160
0.01658462,-16252,-620,1900,-2736,-128,214
0.01658342,-16232,-700,1892,-2768,-220,40
0.01658478,-16320,-628,2004,-2752,-234,9
0.01658478,-16288,-576,1944,-2736,-209,-13
0.01658464,-16532,-456,1868,-2720,-295,220
0.01658464,-16192,-544,1928,-2736,-181,255
0.01658588,-16284,-512,1848,-2768,-122,270
0.01658303,-16384,-564,1852,-2736,67,208
0.01658495,-16224,-552,1976,-2768,9,84
0.01658495,-16180,-616,1960,-2736,17,85
0.01658634,-16228,-708,1984,-2768,-37,125
0.01658389,-16316,-596,2052,-2736,-138,108
0.0165838,-16172,-536,1852,-2736,-225,-42
0.01658387,-16400,-868,1920,-2736,-43,-54
0.01658409,-16296,-716,1968,-2736,-158,140
0.01658485,-16348,-576,1812,-2752,-248,329
0.01658485,-16240,-644,1848,-2736,-115,199
0.01658428,-16140,-480,1868,-2736,-65,173
0.01642625,-16196,-652,2168,-2736,-33,196
0.01642625,-16252,-572,1892,-2752,-53,179
0.01658452,-16292,-588,1932,-2752,-50,160
0.01658417,-16388,-788,1920,-2736,-138,205
0.01658383,-16232,-648,1968,-2720,-162,156
0.01658383,-16228,-584,1948,-2736,-239,161
0.01658244,-16084,-632,1928,-2768,-260,129
0.01658426,-16196,-680,1980,-2768,-226,74
0.01658426,-16400,-576,1944,-2736,-183,251
0.01658517,-16252,-612,2004,-2736,-211,236
0.01658496,-16200,-660,1876,-2768,-214,234
0.01658596,-16364,-508,2012,-2736,-212,154
0.01658596,-16080,-376,2236,-2768,-160,-114
0.0165824,-15884,-656,1988,-2720,-257,-334
0.01658463,-16440,-800,1964,-2720,-369,350
0.01658334,-16384,-572,1940,-2736,-428,743
0.01658446,-16436,-608,1936,-2720,-359,859
0.01658446,-15936,-832,1932,-2768,-322,799
0.01658561,-16188,-288,1748,-2768,-273,1020
0.01699813,-16584,-764,1232,-2752,-442,669
0.01658902,-16804,-1192,1708,-2736,-206,459
0.01658358,-16228,-664,1768,-2720,-180,107
0.01659744,-16476,-536,1716,-2752,-286,340
0.01659744,-16376,-396,1720,-2736,-291,474
0.01659482,-16280,-436,1928,-2736,-319,239
0.01659566,-16364,-528,1852,-2704,-396,466
0.01659857,-16284,-436,1448,-2752,-284,573
0.01659266,-16440,-456,1352,-2752,-148,233
0.01660235,-16288,-444,1580,-2736,-317,431
0.01659703,-16288,-808,2104,-2736,-495,954
0.0165965,-16464,-560,1512,-2752,-613,1999
0.01659695,-16492,-432,1040,-2720,-776,1412
0.01659616,-16364,-268,788,-2736,-390,828
0.01659627,-16484,-188,1200,-2720,-182,445
0.01659808,-16276,-380,1344,-2736,-265,343
0.01659493,-16500,-416,1452,-2736,-529,421
0.01659493,-16588,-476,1320,-2736,-629,604
0.01659939,-16520,-240,1300,-2736,-618,797
0.016595,-16256,32,776,-2736,-483,554
0.01659507,-16180,84,804,-2720,-198,274
0.01659147,-16264,-112,880,-2704,-99,-11
0.01659834,-16400,-384,1492,-2736,15,-34
0.01659719,-16456,-292,1168,-2752,-135,509
0.01659739,-16452,-296,984,-2720,-306,624
0.01659739,-16412,-192,852,-2720,-249,716
0.01659864,-16456,-188,896,-2688,-246,513
0.01659608,-16452,-188,1168,-2752,-433,513
0.01659608,-16420,-92,988,-2736,-480,549
0.01659966,-16292,-132,1020,-2720,-329,435
0.01659612,-16444,-8,1116,-2736,-431,572
0.0165935,-16544,-68,1012,-2736,-396,458
0.01659671,-16300,4,876,-2736,-403,559
0.01659771,-16364,80,868,-2720,-369,637
0.01659903,-16520,180,644,-2736,-335,398
0.01659903,-16500,-12,680,-2720,-166,292
0.01659607,-16344,-24,956,-2704,-220,311
0.01659852,-16392,-104,884,-2704,-169,285
0.01658992,-16504,-72,996,-2736,-355,277
0.01658992,-16480,-28,688,-2704,-489,357
0.01659723,-16548,96,608,-2736,-534,457
0.01659723,-16592,20,660,-2720,-446,385
0.01612703,-16372,48,640,-2720,-312,370
0.01659788,-16516,44,728,-2704,-291,310
0.01659805,-16364,0,712,-2704,-293,293
0.01656747,-16556,32,596,-2704,-387,361
0.01656747,-16392,128,580,-2768,-154,205
0.01659498,-16468,32,604,-2736,-138,90
0.01659498,-16472,-60,696,-2736,-246,158
0.01659755,-16440,120,824,-2736,-198,255
0.01675634,-16524,-12,560,-2720,-234,123
0.01675634,-16336,4,764,-2752,-283,176
0.01659313,-16392,156,584,-2704,-311,273
0.01659515,-16332,64,556,-2704,-254,241
0.01659482,-16296,108,416,-2704,-176,43
0.01659482,-16496,164,636,-2720,-159,88
0.01659511,-16288,152,580,-2704,-225,232
0.01659511,-16336,52,608,-2752,-155,138
0.0165942,-16344,180,612,-2736,-89,20
0.01659702,-16432,104,724,-2736,-148,148
0.01659352,-16464,52,776,-2752,-145,210
0.01659452,-16492,56,704,-2736,-152,268
0.01659588,-16420,232,640,-2752,-103,222
0.01659588,-16452,68,568,-2736,-193,37
0.01659466,-16356,144,640,-2720,-88,76
0.01659466,-16488,4,660,-2736,43,-22
0.01665056,-16288,12,828,-2688,-98,136
0.01665056,-16288,176,708,-2720,-187,306
0.01659587,-16444,232,684,-2736,-214,134
0.01659616,-16620,140,680,-2736,-148,142
0.01659408,-16376,116,664,-2720,-151,190
0.01659408,-16540,68,556,-2736,-95,211
0.01663017,-16520,152,532,-2704,-101,293
0.01663017,-16356,144,580,-2720,-166,67
0.01659573,-16348,-28,756,-2752,-197,213
0.01659377,-16476,-8,540,-2704,-159,194
0.01659329,-16488,112,672,-2736,-104,81
0.01659197,-16508,156,716,-2720,-141,188
0.01659197,-16568,152,544,-2752,-91,218
0.01659341,-16436,-52,640,-2752,-122,199
0.01659451,-16612,116,700,-2752,-79,216
0.01659451,-16544,92,876,-2736,-97,245
0.01664204,-16472,236,520,-2704,-63,285
0.01664204,-16460,224,536,-2704,-73,245
0.01659194,-16476,12,608,-2736,-67,93
0.01659194,-16324,-40,588,-2720,-63,140
0.01659365,-16532,124,692,-2704,-139,280
0.01659374,-16508,208,564,-2736,-137,276
0.01659374,-16560,248,780,-2720,-113,232
0.0165938,-16392,84,732,-2720,-149,207
0.0165947,-16536,148,512,-2768,-125,286
0.01659153,-16420,284,480,-2704,-49,110
0.01659153,-16464,196,636,-2720,-96,233
0.01658974,-16400,260,744,-2752,-97,241
0.01658974,-16416,152,568,-2704,-111,185
0.01659188,-16312,300,540,-2736,-70,178
0.01659188,-16408,260,636,-2720,6,183
0.0161302,-16568,184,460,-2736,200,19
0.01659352,-16428,136,772,-2720,93,286
0.01659453,-16300,268,676,-2752,76,334
0.0165925,-16212,196,552,-2704,-21,173
0.01660788,-16328,192,436,-2704,59,218
0.01659876,-16428,320,444,-2688,63,117
0.01659702,-16432,188,532,-2752,-36,-14
0.01659763,-16572,224,532,-2752,-21,106
0.01659763,-16448,232,764,-2688,-36,254
0.01659793,-16252,280,568,-2688,-170,241
0.01659793,-16388,172,632,-2704,-169,90
0.01659692,-16524,188,684,-2688,-155,248
0.01660057,-16332,252,504,-2736,-158,229
0.01660057,-16512,276,568,-2704,-59,65
0.01659771,-16356,276,588,-2704,-37,45
0.01659771,-16280,312,588,-2704,-59,167
0.01659809,-16596,240,560,-2688,-78,146
0.01659809,-16584,160,616,-2704,-37,153
0.01655908,-16552,180,572,-2736,-76,142
0.01655908,-16472,204,544,-2688,-69,159
0.01659764,-16400,240,580,-2704,-107,81
0.01659764,-16272,168,652,-2720,-184,183
0.01659738,-16348,264,636,-2704,-181,121
0.01659745,-16332,328,596,-2736,-146,155
0.01659718,-16392,192,572,-2736,-134,123
0.01659718,-16420,232,584,-2720,-93,162
0.01659805,-16448,300,816,-2720,-120,254
0.01659805,-16460,128,532,-2704,-94,231
0.01659878,-16304,388,568,-2736,-117,200
0.01659429,-16396,216,392,-2736,-87,136
0.01659931,-16320,68,844,-2736,-76,119
0.01659931,-16348,248,584,-2688,-129,286
0.0165986,-16488,148,372,-2704,-216,286
0.0165986,-16532,144,460,-2704,-133,221
0.01658668,-16476,268,488,-2704,-70,167
0.01658668,-16456,156,572,-2736,-94,211
0.0165871,-16260,200,604,-2704,-162,184
0.0165871,-16580,168,488,-2704,-86,125
0.01658899,-16464,220,448,-2688,-124,138
0.01658792,-16348,196,448,-2720,-128,64
0.01658792,-16408,152,740,-2720,-22,160
0.0165895,-16332,116,620,-2704,-98,203
0.0165895,-16324,248,340,-2736,-61,62
0.01658927,-16384,296,340,-2720,4,20
0.01658927,-16584,32,564,-2704,-5,101
0.0165864,-16552,144,748,-2688,-151,298
0.0165864,-16476,292,452,-2720,-121,70
0.01658655,-16448,168,548,-2704,-89,97
0.01658655,-16340,96,580,-2704,-122,103
0.0165887,-16432,256,500,-2720,-80,99
0.01658843,-16560,144,784,-2736,-78,140
0.01641154,-16368,272,548,-2720,-133,173
0.01658702,-16496,196,568,-2672,-145,146
0.01658843,-16384,272,496,-2688,-74,122
0.01658932,-16428,284,712,-2688,-63,136
0.01658932,-16324,96,640,-2704,-78,73
0.01658519,-16420,64,736,-2704,-127,302
0.01658519,-16380,180,460,-2704,-80,217
0.01658835,-16600,196,672,-2720,31,91
0.01658973,-16376,128,856,-2704,-127,270
0.01658327,-16516,240,448,-2720,-132,306
0.016588,-16304,304,388,-2720,-161,56
0.016588,-16388,228,684,-2688,-84,207
0.01658437,-16524,208,576,-2688,-144,181
0.01658554,-16564,316,496,-2704,-81,254
0.01658554,-16276,184,532,-2704,-107,129
0.01658149,-16332,276,688,-2704,-77,178
0.01658731,-16444,160,428,-2688,-101,170
0.01658731,-16612,140,736,-2704,-54,155
0.01658868,-16460,56,632,-2672,-147,263
0.01658868,-16308,316,616,-2704,-126,258
0.01658914,-16372,252,544,-2704,-63,127
0.01658914,-16416,348,476,-2720,-33,111
0.01658783,-16396,272,484,-2688,-79,157
0.01658598,-16572,196,444,-2704,-90,87
0.01658598,-16452,104,500,-2704,-77,130
0.01658659,-16352,232,596,-2736,-120,124
0.01658768,-16436,304,524,-2704,-12,116
0.01658768,-16392,164,480,-2720,74,-30
0.01658439,-16332,0,760,-2672,-94,80
0.01658665,-16424,228,692,-2720,-186,281
0.01658665,-16468,156,492,-2736,-91,177
0.01658862,-16344,268,600,-2720,-69,23
0.01658862,-16448,48,672,-2720,8,-16
0.01658755,-16256,112,608,-2720,-95,143
0.01658862,-16488,268,420,-2704,-231,268
0.01658482,-16640,264,524,-2672,-120,84
0.01658985,-16396,208,612,-2720,-33,238
0.01658685,-16512,108,764,-2720,-124,107
0.01658685,-16592,260,620,-2672,-187,279
0.01658805,-16452,284,492,-2688,-82,275
0.01658872,-16320,236,268,-2704,-45,89
0.01658611,-16436,52,788,-2672,-33,-21
0.01687082,-16580,44,764,-2704,-79,195
0.01665812,-16488,216,500,-2688,-178,277
0.01665812,-16424,124,452,-2704,-72,99
0.01658484,-16328,132,632,-2736,-21,146
0.01658765,-16484,112,560,-2720,-94,235
0.01658662,-16360,156,620,-2704,-149,157
0.01658662,-16264,224,460,-2672,-96,119
0.01658892,-16408,236,460,-2704,-100,173
0.01658551,-16456,276,680,-2704,-23,14
0.01664615,-16500,84,732,-2720,-96,155
0.01664615,-16460,100,524,-2688,-100,135
0.01658893,-16280,168,480,-2704,-97,145
0.01694871,-16572,92,560,-2704,-121,94
0.01658684,-16300,224,560,-2672,-118,116
0.01658765,-16456,112,660,-2704,-57,159
0.01658765,-16444,292,728,-2704,-82,172
0.0165891,-16396,136,796,-2704,-40,127
0.01659035,-16356,272,500,-2720,-114,111
0.01658869,-16328,4,568,-2720,-82,48
0.01658878,-16476,104,700,-2704,-47,201
0.01658878,-16504,140,388,-2704,-169,293
0.01658792,-16464,208,552,-2688,-5,80
0.01658853,-16364,328,816,-2704,-73,275
0.01641907,-16360,104,620,-2672,-124,192
0.01659144,-16556,188,444,-2704,-141,120
0.01658826,-16480,144,452,-2720,-61,221
0.01658826,-16276,120,716,-2704,-40,144
0.01659604,-16532,188,720,-2672,-59,202
0.01659604,-16300,136,724,-2688,-104,94
0.01500761,-16344,252,484,-2720,-103,147
0.01500761,-16708,168,628,-2688,-15,75
0.01659026,-16512,92,696,-2704,-106,253
0.0165912,-16484,204,396,-2704,-141,212
0.01658834,-16524,204,440,-2688,-42,110
0.01658925,-16376,4,620,-2688,6,119
0.01658975,-16500,268,500,-2720,-49,212
0.01658763,-16580,340,588,-2704,59,123
0.01658763,-16220,-20,404,-2704,264,-11
0.01658973,-16604,76,784,-2688,85,152
0.01659022,-16464,48,440,-2720,-10,136
0.01659022,-16268,192,368,-2688,18,88
0.01658814,-16600,236,252,-2672,129,-47
0.01658814,-16664,224,536,-2688,348,58
0.01658967,-16528,248,492,-2688,432,-4
0.01658967,-16320,56,776,-2704,440,-230
0.01658908,-16428,124,644,-2672,286,-166
0.01658908,-16444,144,704,-2688,388,-363
0.01658892,-16180,64,484,-2672,427,-702
0.01659323,-16328,52,636,-2672,575,-1019
0.01659323,-16468,-124,1020,-2688,618,-1131
0.01658875,-16428,-204,1060,-2688,542,-1037
0.01658875,-16548,-304,1068,-2688,480,-817
0.01658953,-16340,-200,1224,-2688,357,-437
0.01658831,-16496,-152,904,-2672,491,-517
0.01659057,-16252,-88,996,-2672,507,-725
0.016589,-16220,-356,1340,-2688,439,-1034
0.016589,-16244,-344,1524,-2688,444,-1198
0.01658943,-16312,-660,1760,-2672,408,-1087
0.01659082,-16364,-552,1732,-2704,148,-804
0.01659052,-16408,-420,1648,-2672,143,-797
0.01658919,-16320,-452,1648,-2640,198,-946
0.01658993,-16108,-524,1976,-2672,215,-991
0.01658993,-16336,-620,1660,-2688,93,-592
0.01659052,-16372,-560,1716,-2720,106,-455
0.01658901,-16428,-508,1984,-2720,248,-670
0.01658901,-16308,-580,2212,-2672,141,-315
0.01658978,-16276,-424,1996,-2656,202,-188
0.01658952,-16124,-760,2080,-2688,349,-689
0.01659087,-16248,-472,2292,-2704,377,-580
0.01658751,-16396,-556,2172,-2688,292,-290
0.01659586,-16208,-732,1964,-2672,337,-315
0.01659599,-16164,-776,2228,-2704,385,-313
0.01659599,-16376,-528,2172,-2688,281,-120
0.01659712,-16100,-700,2192,-2688,219,-177
0.01659418,-16168,-644,2352,-2704,356,-359
0.016597,-15968,-556,2204,-2704,745,-657
0.01659496,-16340,-520,2496,-2672,352,-687
0.01659593,-16332,-560,2308,-2672,584,-589
0.01659593,-16004,-940,2716,-2720,737,-942
0.01659831,-16180,-728,2908,-2704,102,-107
0.01659523,-16068,-400,2456,-2704,18,25
0.01659535,-16036,-560,2540,-2704,294,-151
0.01659535,-15964,-816,3108,-2656,257,165
0.01659453,-16328,-540,2784,-2656,-42,370
0.01659577,-16228,-644,2540,-2704,-5,253
0.01659577,-16220,-640,2760,-2672,131,145
0.01659648,-15948,-612,2496,-2688,93,256
0.01659523,-16124,-584,2564,-2736,118,163
0.01659659,-16196,-584,2652,-2672,91,216
0.01659341,-16356,-640,2528,-2704,213,166
0.01659643,-15932,-668,2736,-2688,99,38
0.01659643,-16116,-528,2796,-2688,34,87
0.01659739,-16076,-488,2836,-2688,-58,112
0.01659691,-16116,-400,2544,-2672,-83,184
0.01659757,-16060,-660,2704,-2672,7,100
0.01659757,-16236,-552,2612,-2672,-72,56
0.0165932,-16176,-520,2744,-2672,-155,112
0.01659725,-16096,-336,2512,-2656,-93,457
0.01659625,-16116,-564,2548,-2688,56,129
0.01659606,-16192,-708,2784,-2688,58,133
0.01659472,-16140,-612,2628,-2672,-6,275
0.01659858,-16144,-652,2740,-2704,-15,176
0.01659858,-16244,-540,2544,-2720,-9,226
0.01659431,-16172,-552,2528,-2688,-5,51
0.01659474,-16140,-580,2616,-2672,-6,117
0.01659623,-16144,-484,2820,-2672,-126,119
0.01659623,-16144,-428,2616,-2704,-198,302
0.01659471,-16176,-516,2460,-2688,-59,124
0.01659604,-16044,-608,2820,-2672,-52,301
0.01659604,-16004,-696,2604,-2704,-227,311
0.01659643,-16308,-656,2564,-2656,-117,135
0.01659643,-16204,-472,2564,-2672,-105,361
0.01659468,-15932,-496,2520,-2720,-142,270
0.01659616,-16092,-564,2588,-2656,-115,158
0.01659637,-15984,-484,2752,-2704,-139,144
0.01659679,-16072,-460,2676,-2704,-190,254
0.0165957,-16224,-528,2440,-2688,-256,271
0.01659674,-16140,-432,2560,-2704,-130,123
0.01659674,-16144,-508,2632,-2704,-128,98
0.01659752,-16132,-612,2464,-2720,-143,145
0.01659752,-16192,-580,2704,-2672,-133,48
0.01659597,-16196,-584,2776,-2704,-87,369
0.01659597,-16104,-564,2480,-2672,-125,349
0.01659458,-16020,-524,2564,-2688,-227,343
0.0165959,-16140,-448,2468,-2656,-50,256
0.0165959,-16140,-472,2692,-2672,-32,113
0.01659572,-16296,-648,2768,-2672,-111,203
0.01659572,-16088,-608,2612,-2688,-121,263
0.01659715,-16172,-536,2516,-2688,-199,256
0.01659681,-16068,-656,2560,-2688,-199,237
0.01659681,-16168,-436,2472,-2704,-265,410
0.01659432,-16180,-532,2552,-2672,-312,400
0.01659432,-16280,-644,2528,-2672,-305,294
0.0165955,-16224,-668,2720,-2688,-314,324
0.01659624,-16236,-496,2540,-2672,-276,331
0.01659369,-15900,-768,3024,-2640,-401,251
0.01659688,-16228,-240,2636,-2688,-777,711
0.01659428,-16468,-328,1976,-2656,-606,159
0.01659428,-16244,-584,2264,-2688,-237,-174
0.01659776,-16368,-800,2808,-2704,-275,22
0.01659466,-16336,-512,2536,-2704,-538,747
0.01659543,-16256,-404,2192,-2672,-406,893
0.01659684,-16096,-392,2136,-2672,-249,637
0.01659684,-16088,-356,2296,-2704,-33,384
0.01659848,-16276,-484,2300,-2672,-27,208
0.01659848,-16460,-504,2224,-2656,0,252
0.01659732,-16280,-440,2424,-2688,-67,455
0.01659668,-16192,-424,2356,-2672,-321,733
0.01659722,-16080,-260,2136,-2688,-302,773
0.01659764,-16028,-408,2352,-2656,-354,759
0.0165938,-16244,-232,1936,-2672,-337,557
0.01659532,-16256,-280,2456,-2672,-424,388
0.01659503,-16352,-344,2316,-2672,-558,1256
0.01659603,-16312,-120,1732,-2656,-564,1224
0.01659727,-16280,-140,1816,-2688,-463,886
0.01659559,-16500,-200,1624,-2672,-311,838
0.01659678,-16080,-48,2032,-2720,-372,832
0.0165942,-16212,-140,1672,-2656,-348,747
0.0165942,-16196,-208,1908,-2688,-196,528
0.01659312,-16224,-160,1820,-2672,-337,658
0.01659519,-16124,-532,2068,-2688,-598,832
0.01659519,-16492,-80,1712,-2688,-768,1543
0.01659657,-16620,344,1176,-2656,-811,917
0.01659484,-16232,356,1164,-2672,-847,219
0.01659543,-16496,128,1172,-2672,-458,52
0.01659613,-16308,52,1644,-2640,-265,232
0.01659182,-16404,84,1736,-2672,-390,390
0.01659591,-16464,164,1540,-2672,-453,456
0.01659591,-16468,-52,1540,-2704,-341,461
0.0165947,-16392,152,1312,-2704,-442,608
0.0165949,-16512,112,1356,-2672,-379,236
0.0165949,-16352,60,1456,-2688,-307,358
0.01659434,-16500,32,1564,-2672,-450,610
0.01659485,-16196,-152,1420,-2688,-647,835
0.01659485,-16540,16,1332,-2688,-552,668
0.0165945,-16468,188,1468,-2688,-472,683
0.01659289,-16544,164,1248,-2672,-521,1064
0.01659405,-16420,120,1092,-2656,-404,967
0.01659405,-16452,16,1092,-2672,-286,743
0.0165931,-16444,140,1264,-2672,-406,999
0.0165958,-16468,456,888,-2656,-466,1187
0.01659496,-16440,416,980,-2640,-514,1059
0.01659392,-16180,244,1188,-2656,-607,1284
0.01659392,-16272,424,664,-2688,-625,1539
0.0165933,-16572,620,268,-2672,-393,1021
0.0165943,-16432,576,772,-2672,-373,609
0.01659363,-16416,660,336,-2688,-437,646
0.01659304,-16508,524,148,-2656,-232,530
0.01659304,-16516,408,696,-2656,-39,99
0.01659252,-16628,272,752,-2672,-145,392
0.01659606,-16588,428,464,-2688,-189,378
0.0165938,-16504,504,440,-2656,-194,374
0.01659393,-16284,664,408,-2688,-121,497
0.01659508,-16332,596,564,-2672,-63,216
0.01659508,-16428,580,492,-2688,-100,247
0.01659325,-16324,524,396,-2688,-172,304
0.01659578,-16544,500,288,-2688,-140,124
0.01659439,-16400,528,520,-2704,-142,189
0.01659439,-16336,620,544,-2672,-174,392
0.01681703,-16380,600,424,-2672,-246,211
0.01659488,-16320,544,400,-2672,-231,303
0.01659519,-16320,468,396,-2640,76,72
0.0165941,-16364,572,428,-2656,106,134
0.01659472,-16312,576,548,-2672,66,206
0.01659542,-16516,508,456,-2672,-79,274
0.01659542,-16420,560,384,-2688,44,217
0.0165949,-16364,472,484,-2672,18,67
0.01659282,-16572,516,620,-2656,-108,149
0.01659668,-16416,588,228,-2672,-104,90
0.0165954,-16416,604,432,-2672,-71,44
0.0165954,-16608,560,376,-2704,-121,198
0.01659642,-16584,472,596,-2688,-55,2
0.01659306,-16520,444,756,-2656,-71,211
0.01659306,-16408,576,476,-2640,-120,309
0.01659453,-16436,676,416,-2688,-112,299
0.01659282,-16516,620,472,-2656,0,143
0.01643057,-16552,612,316,-2688,9,81
0.01643057,-16448,412,344,-2672,-64,96
0.01659402,-16404,580,436,-2656,-131,181
0.01659289,-16428,656,340,-2656,-70,88
0.01659448,-16308,660,320,-2672,8,127
0.01659503,-16648,420,688,-2656,27,51
0.01659548,-16504,324,548,-2640,-56,273
0.01659981,-16376,584,460,-2640,-161,404
0.01659335,-16440,584,240,-2688,-87,146
0.01659335,-16472,476,400,-2672,-32,23
0.01659364,-16528,608,588,-2640,-34,219
0.01659414,-16444,580,396,-2704,-180,248
0.01659521,-16372,528,460,-2672,-86,101
0.01659474,-16348,580,500,-2672,-82,100
0.01659474,-16472,568,348,-2640,-99,146
0.01659582,-16276,552,556,-2656,-48,100
0.01659216,-16380,628,248,-2640,10,173
0.01659369,-16520,352,624,-2656,-43,39
0.01659428,-16372,604,380,-2656,-72,230
0.01659428,-16488,636,276,-2672,-103,153
0.01659722,-16336,492,376,-2672,-14,57
0.01659909,-16260,552,644,-2672,-31,49
0.01659999,-16316,520,600,-2704,-118,217
0.01659774,-16488,584,260,-2640,-136,269
0.01659962,-16296,448,408,-2672,-95,62
0.01659962,-16484,488,408,-2656,-4,38
0.01659971,-16680,528,568,-2640,17,53
0.01660075,-16588,448,504,-2656,63,7
0.01659758,-16388,468,544,-2672,80,55
0.01659776,-16468,396,696,-2656,34,106
0.01659867,-16560,488,452,-2656,24,233
0.01659914,-16552,532,404,-2672,-3,259
0.01659845,-16428,500,356,-2656,-9,278
0.01659845,-16524,400,408,-2672,7,129
0.01659804,-16364,428,648,-2656,44,-39
0.01659847,-16392,536,320,-2672,2,94
0.01659829,-16396,440,548,-2656,106,-232
0.01659863,-16264,192,504,-2640,61,-369
0.01659863,-16560,248,576,-2656,27,-40
0.01659606,-16332,380,612,-2688,-128,-164
0.01659838,-16372,356,232,-2672,95,-327
0.01659838,-16372,288,664,-2672,143,-581
0.01659656,-16384,292,576,-2656,-46,-603
0.01611151,-16504,340,780,-2624,175,-427
0.01659779,-16316,404,796,-2688,193,-312
0.01650544,-16296,336,1056,-2640,228,-382
0.01658104,-16288,140,1120,-2656,92,-329
0.01657799,-16288,160,740,-2640,2,-188
0.01657799,-16592,100,756,-2640,131,-323
0.01658345,-16412,124,832,-2672,97,-167
0.01658143,-16272,172,876,-2656,18,-248
0.01658143,-16464,180,864,-2672,125,-445
0.01658222,-16600,20,1008,-2672,277,-408
0.01658032,-16520,112,1148,-2656,244,-296
0.01658159,-16500,112,908,-2656,205,-308
0.01658022,-16384,200,900,-2672,425,-596
0.01641257,-16260,-60,1140,-2672,581,-880
0.01641257,-16400,-104,1308,-2656,388,-1017
0.01658054,-16356,-104,1716,-2640,161,-986
0.01658205,-16328,-80,1636,-2640,11,-524
0.01658214,-16272,8,1552,-2640,6,-477
0.01658087,-16264,-28,1684,-2656,153,-213
0.01658248,-16348,-112,1588,-2704,113,-368
0.01658054,-16336,-52,1596,-2656,48,-551
0.01658211,-16312,-48,1540,-2656,205,-529
0.01658211,-16164,-124,1744,-2624,330,-663
0.0165768,-16188,-20,1644,-2672,396,-529
0.01658268,-16276,-292,1916,-2656,260,-427
0.01657981,-16184,-248,1968,-2656,126,-537
0.01657981,-16488,-312,2004,-2624,62,-242
0.01658178,-16444,-400,1652,-2640,206,-94
0.01657817,-16468,-352,1812,-2656,152,-75
0.01657817,-16192,-104,1944,-2656,137,-341
0.01658222,-16132,-324,2076,-2672,208,-706
0.01658059,-16212,-172,2076,-2656,442,-590
0.01658059,-16500,-316,2512,-2656,475,-562
0.01658027,-16264,-296,2364,-2640,367,-348
0.01658091,-16196,-348,2204,-2672,247,-364
0.01658091,-16192,-340,2152,-2656,192,-241
0.01658263,-16208,-400,2372,-2672,166,-338
0.01657679,-16148,-272,2408,-2672,-80,63
0.01658139,-16212,-488,2104,-2640,-125,-272
0.0165829,-16176,-376,2520,-2656,1,-232
0.01657966,-16252,-308,2320,-2672,27,-81
0.01658192,-16372,-208,2188,-2624,69,-86
0.01658192,-16224,-384,2600,-2640,215,-78
0.01658029,-16036,-496,2492,-2640,122,4
0.01658113,-16328,-228,2304,-2672,76,-2
0.01658113,-16252,-324,2360,-2640,141,19
0.01658174,-16164,-232,2204,-2640,226,-105
0.01658102,-16128,-360,2600,-2640,106,178
0.01658102,-16200,-536,2328,-2656,-4,139
0.016581,-16188,-168,2392,-2656,-92,78
0.01658104,-16348,-276,2660,-2656,-41,36
0.01657968,-16144,-324,2584,-2656,-83,316
0.01658366,-16048,-416,2464,-2640,-124,256
0.01657672,-16316,-304,2464,-2656,-109,191
0.01693532,-16236,-252,2484,-2640,37,77
0.01693532,-16208,-232,2568,-2624,67,183
0.01658536,-16116,-264,2492,-2656,11,249
0.01658218,-16036,-228,2536,-2656,-53,106
0.01658556,-16268,-160,2524,-2656,-12,73
0.01658556,-16116,-204,2412,-2624,-56,112
0.01655123,-16300,-348,2364,-2624,-144,142
0.01658376,-16096,-300,2516,-2640,-93,181
0.01658455,-16248,-376,2488,-2656,-100,235
0.01658357,-16324,-260,2264,-2640,-66,63
0.01658374,-16292,-312,2552,-2640,14,191
0.01588126,-16128,-400,2552,-2624,-28,344
0.01588126,-16112,-228,2300,-2656,-12,143
0.01658484,-16236,-224,2484,-2640,-16,151
0.01658211,-16312,-216,2384,-2640,-13,269
0.01658513,-16244,-304,2376,-2672,-22,230
0.01658438,-16104,-400,2416,-2640,-127,114
0.01658113,-16120,-172,2468,-2608,-141,190
0.01658409,-16140,-308,2412,-2640,-95,-65
0.0165847,-16184,-284,2252,-2624,-103,262
0.01658289,-16052,-216,2492,-2672,11,104
0.01658552,-16248,-344,2512,-2640,-93,409
0.0165812,-16216,-400,2320,-2656,-122,368
0.01639256,-16172,-252,2304,-2640,58,156
0.01684601,-16328,-316,2432,-2640,28,265
0.0165835,-16184,-268,2468,-2656,-53,220
0.0165835,-16180,-248,2196,-2624,-8,90
0.01658476,-16064,-312,2388,-2624,-6,77
0.01658555,-16264,-384,2332,-2672,-147,241
0.0165842,-16116,-348,2428,-2640,-188,173
0.01658413,-16088,-384,2348,-2640,-95,260
0.01658384,-16096,-376,2204,-2640,-172,223
0.01658384,-16364,-240,2352,-2656,-31,84
0.01658288,-16092,-260,2388,-2656,54,230
0.01658654,-16108,-428,2348,-2672,-52,311
0.01658654,-16068,-324,2328,-2624,-134,550
0.01658654,-16168,-180,2388,-2640,-165,611
0.01658499,-16340,-220,2192,-2640,-74,286
0.01658328,-16116,-188,2340,-2640,-121,200
0.01658336,-16392,-276,2232,-2672,-135,242
0.01658501,-16080,-332,2364,-2640,-157,137
0.01658558,-16240,-324,2556,-2640,-70,230
0.01658355,-16020,-256,2464,-2656,-115,246
0.01660109,-16156,-344,2316,-2640,-170,343
0.01658912,-16364,-312,2140,-2624,-72,255
0.01658729,-16264,-244,2204,-2640,22,272
0.01658729,-16212,-268,2464,-2608,-59,405
0.01659001,-16404,-288,2256,-2640,-227,635
0.01658635,-16148,-188,2080,-2624,-147,435
0.01658639,-16044,-360,2252,-2656,-118,318
0.01658948,-16312,-300,2160,-2640,-237,290
0.01658772,-16416,-312,2096,-2656,-192,239
0.01658599,-16212,-256,2072,-2624,-226,320
0.01658703,-16068,-324,2212,-2640,-93,374
0.01658627,-16144,-248,2276,-2656,-203,208
0.01658781,-16360,-160,2256,-2624,-160,314
0.01658781,-16340,-284,2004,-2624,-22,363
0.01658888,-16336,-276,2216,-2640,-10,450
0.01658952,-16236,-136,2328,-2640,-200,724
0.01658952,-16100,-144,2120,-2656,-236,636
0.01658909,-16204,-8,1852,-2608,-113,550
0.01658852,-16348,-152,1952,-2640,-102,445
0.01658852,-16308,-136,1928,-2624,-118,226
0.01658765,-16272,-524,2212,-2608,-232,65
0.01658845,-16396,104,1844,-2624,-451,589
0.01658845,-16232,204,1604,-2624,77,307
0.01675808,-16308,-308,2024,-2640,295,12
0.01675808,-16284,-280,2376,-2640,76,601
0.0165884,-16400,-172,2096,-2640,-1,1296
0.0165884,-16260,-188,1700,-2640,-81,1230
0.01658803,-16356,-112,1484,-2672,-245,947
0.01658724,-16384,-124,1816,-2608,-167,641
0.01658724,-16448,-232,1820,-2624,-133,950
0.01639899,-16572,136,1348,-2624,-312,958
0.01639899,-16340,232,1492,-2640,-238,783
0.01658757,-16340,28,1264,-2640,-155,606
0.01658786,-16332,104,1580,-2624,-383,537
0.01658894,-16460,-4,1376,-2624,-421,582
0.01658894,-16484,136,1288,-2640,-262,469
0.01658687,-16328,28,1412,-2624,-263,317
0.01658868,-16256,268,1380,-2592,-248,538
0.01658868,-16380,360,1308,-2624,-281,698
0.01641439,-16512,148,1204,-2624,-251,790
0.01658837,-16424,180,1412,-2640,-188,1131
0.01658837,-16440,156,1384,-2624,-566,1527
0.01658821,-16292,272,1028,-2608,-607,1505
0.01659204,-16304,196,964,-2624,-571,963
0.01658537,-16212,172,1236,-2656,-667,796
0.01658799,-16504,328,952,-2608,-661,1226
0.01658799,-16348,552,504,-2592,-374,1014
0.01658839,-16624,456,572,-2640,-456,563
0.01658839,-16624,120,944,-2592,-464,1112
0.01658865,-16552,112,508,-2656,-519,982
0.01658843,-16496,524,272,-2656,-268,794
0.01658843,-16608,512,572,-2624,-175,672
0.01658688,-16240,556,576,-2640,-336,454
0.01658767,-16324,400,656,-2640,-406,304
0.01658767,-16344,476,576,-2592,-492,453
0.01658727,-16448,532,420,-2656,-428,647
0.01658694,-16556,472,612,-2656,-390,490
0.01658885,-16392,412,572,-2608,-391,637
0.01658885,-16468,264,952,-2624,-485,1512
0.01658937,-16368,452,208,-2640,-515,1075
0.01658801,-16528,724,268,-2640,-441,979
0.01658801,-16548,536,208,-2640,-306,687
0.01658815,-16400,612,100,-2624,-292,484
0.01658828,-16628,652,88,-2656,-80,489
0.0165872,-16464,692,176,-2640,-51,675
0.01658999,-16472,656,380,-2624,-222,771
0.01658999,-16664,604,136,-2624,-256,974
0.01658968,-16460,792,-152,-2624,-262,909
0.01658853,-16388,892,-192,-2624,-242,691
0.01658663,-16360,704,12,-2640,-222,859
0.016588,-16456,684,-292,-2640,-342,573
0.016588,-16468,868,-220,-2624,-167,463
0.01658619,-16472,924,-124,-2640,-72,156
0.01658821,-16452,920,-228,-2592,-9,-114
0.01658821,-16320,712,184,-2640,-87,-3
0.01658629,-16612,716,-8,-2656,-231,343
0.0165875,-16528,800,-136,-2624,-186,264
0.01659444,-16364,868,-164,-2624,-110,106
0.01659444,-16488,764,-284,-2608,-28,1
0.01658735,-16400,772,44,-2656,-59,469
0.01658735,-16516,728,-320,-2624,-131,372
0.01658756,-16448,912,-396,-2624,-23,115
0.01658757,-16392,724,-140,-2608,-36,3
0.01658843,-16460,820,-320,-2656,-49,-28
0.01658916,-16452,856,-152,-2656,14,57
0.01658916,-16408,800,56,-2608,-94,197
0.01658754,-16440,796,-76,-2608,-127,240
0.01658754,-16456,884,-260,-2608,-81,131
0.01658704,-16544,808,-260,-2640,-49,-42
0.01658692,-16436,788,-160,-2656,57,58
0.0165831,-16460,572,116,-2656,-95,-47
0.0165831,-16472,680,-12,-2640,-169,327
0.0165897,-16436,716,-124,-2592,-157,290
0.01693838,-16284,896,-268,-2608,-217,305
0.01693838,-16352,716,-132,-2640,-65,111
0.01658739,-16636,800,-232,-2640,-31,80
0.01658739,-16448,768,-104,-2624,-131,155
0.0166242,-16340,804,-24,-2624,-87,112
0.01659413,-16368,844,-96,-2624,-86,87
0.01659472,-16524,772,-140,-2624,-84,65
0.01659489,-16472,820,-100,-2608,-39,35
0.01659489,-16568,700,8,-2624,-121,150
0.01659514,-16536,664,-76,-2624,-143,122
0.01659503,-16428,840,-216,-2624,-198,261
0.01659322,-16340,812,-140,-2624,-66,177
0.01659326,-16456,840,-48,-2608,-20,13
0.01659439,-16580,764,132,-2608,-72,200
0.01659439,-16492,732,-204,-2608,-117,437
0.01659634,-16372,724,-68,-2624,-120,321
0.01659435,-16244,792,-304,-2608,-56,52
0.01659225,-16404,756,-320,-2640,-69,70
0.01659396,-16356,868,-88,-2624,-51,126
0.01659396,-16572,620,-156,-2624,-6,-30
0.01659415,-16352,764,36,-2624,-110,282
0.01659552,-16380,840,-128,-2624,-144,422
0.01659552,-16436,828,-424,-2640,-119,88
0.01659318,-16324,764,-272,-2592,0,-24
0.01659318,-16428,700,-220,-2656,-84,243
0.01659676,-16548,844,-192,-2592,-85,141
0.01659581,-16392,656,-256,-2608,4,-136
0.01659581,-16532,784,-184,-2608,-13,33
0.01659278,-16456,892,-68,-2656,-25,-71
0.01659278,-16412,860,-376,-2624,-100,49
0.01659452,-16408,760,-240,-2624,101,-86
0.01659404,-16592,476,36,-2624,-21,-183
0.01659404,-16596,508,176,-2608,-243,140
0.01659432,-16536,680,12,-2640,-214,268
0.01659432,-16468,824,-180,-2624,-78,109
0.01659211,-16484,788,-96,-2592,5,-219
0.01659459,-16420,620,40,-2640,-16,-64
0.01659404,-16448,764,-280,-2608,22,-61
0.01659443,-16416,764,16,-2608,121,-375
0.01659443,-16312,596,184,-2624,154,-297
0.01659335,-16468,440,336,-2624,-141,156
0.01658733,-16432,808,-152,-2608,-311,234
0.01658733,-16428,776,-240,-2608,13,-233
0.01659279,-16416,688,60,-2624,181,-355
0.01659279,-16692,692,132,-2608,239,-386
0.01659429,-16464,624,204,-2624,311,-425
0.01659429,-16500,456,288,-2592,278,-352
0.01659498,-16416,560,260,-2576,169,-578
0.01659559,-16300,416,256,-2608,26,-476
0.01659559,-16452,504,440,-2624,-60,-410
0.01659608,-16328,480,512,-2624,97,-703
0.01659443,-16400,312,540,-2656,84,-676
0.01659443,-16552,376,512,-2608,170,-375
0.01659282,-16532,372,468,-2608,129,-616
0.01659282,-16408,256,644,-2576,61,-436
0.01659637,-16432,276,468,-2624,127,-487
0.01659346,-16468,292,784,-2656,308,-514
0.01659501,-16444,304,916,-2608,172,-703
0.01659486,-16556,196,792,-2608,97,-476
0.01659486,-16428,152,696,-2640,237,-498
0.01659516,-16456,96,1004,-2608,85,-499
0.01659378,-16304,20,1084,-2608,27,-345
0.01659391,-16332,-12,900,-2608,66,-311
0.01659529,-16468,44,960,-2624,113,-421
0.01659371,-16480,188,1044,-2640,64,-340
0.01659195,-16656,120,1036,-2608,132,-630
0.01659195,-16504,160,1212,-2624,143,-310
0.01659528,-16444,316,744,-2640,94,-88
0.01659528,-16348,56,956,-2576,403,-341
0.01659391,-16268,96,1380,-2640,350,-209
0.01659553,-16440,296,1284,-2608,95,94
0.01659367,-16336,172,936,-2608,90,-89
0.01659696,-16308,92,1424,-2592,136,-568
0.01659712,-16312,-4,1376,-2624,-2,-230
0.01659712,-16524,172,1396,-2592,65,-59
0.01659511,-16396,168,1308,-2608,149,73
0.01659477,-16188,200,1164,-2640,195,-211
0.01659477,-16520,148,1332,-2624,203,-298
0.01659408,-16568,12,1500,-2624,171,-99
0.0165941,-16336,16,1524,-2608,204,-163
0.0165941,-16344,96,1516,-2640,159,-219
0.01659535,-16364,80,1460,-2592,199,99
0.01659464,-16312,228,1464,-2592,192,248
0.01659464,-16404,260,1536,-2608,130,280
0.01659301,-16172,360,1328,-2592,98,-41
0.01659563,-16468,288,1284,-2608,76,-244
0.01659563,-16276,180,1484,-2608,67,-297
0.01659648,-16416,236,1600,-2608,246,26
0.01659357,-16212,56,1592,-2608,157,62
0.01659357,-16256,88,1416,-2608,35,-64
0.01659438,-16224,328,1600,-2576,131,64
0.01648507,-16164,340,1624,-2608,168,115
0.01659415,-16428,304,1516,-2592,112,222
0.01659415,-16200,468,1400,-2592,161,-90
0.01659456,-16428,264,1604,-2592,236,-219
0.01659456,-16512,188,1448,-2608,108,-143
0.01659473,-16404,68,1560,-2592,135,-11
0.01659682,-16292,120,1656,-2624,76,-107
0.01659435,-16248,-44,1756,-2608,-123,1
0.01659435,-16396,80,1656,-2608,-237,-20
0.01659316,-16604,244,1788,-2576,-69,-67
0.01659484,-16456,312,1728,-2608,-21,42
0.01658411,-16224,244,1696,-2608,-56,212
0.0165913,-16324,144,1704,-2608,-13,72
0.01659051,-16368,184,1688,-2608,18,128
0.01659051,-16228,244,1668,-2608,-47,221
0.01659244,-16272,192,1664,-2608,-26,59
0.01659244,-16276,268,1876,-2592,-82,124
0.01658922,-16300,144,1640,-2608,-135,168
0.01659058,-16428,52,1692,-2560,-93,-89
0.01659058,-16336,212,1768,-2608,-76,213
0.01659263,-16168,112,1680,-2624,-131,333
0.01659118,-16300,12,1668,-2624,-69,109
0.01659118,-16364,76,1616,-2624,-67,138
0.01659301,-16364,312,1736,-2608,-78,165
0.01659301,-16208,348,1524,-2624,-58,188
0.01659451,-16348,104,1596,-2624,-68,179
0.01659451,-16360,204,1584,-2624,-63,180
0.01659385,-16068,264,1608,-2592,-65,98
0.01659385,-16280,168,1748,-2624,-64,-12
0.01659084,-16412,100,1896,-2624,-146,282
0.01659245,-16272,140,1460,-2576,-159,255
0.01659184,-16388,268,1588,-2576,10,-69
0.01659232,-16312,168,1820,-2624,-30,282
0.01659406,-16060,28,1444,-2624,-43,305
0.01659406,-16136,112,1680,-2592,-39,124
0.01659179,-16508,176,1708,-2576,-29,247
0.01659179,-16236,188,1748,-2608,28,218
0.01659439,-16292,164,1780,-2608,-117,190
0.01659245,-16424,284,1548,-2608,-109,122
0.01659245,-16196,332,1568,-2592,-97,172
0.01659341,-16424,128,1636,-2608,-89,62
0.01659068,-16100,184,1732,-2640,-113,326
0.016592,-16416,284,1576,-2592,-169,381
0.01659169,-16376,184,1932,-2592,-417,1137
0.01659169,-16444,176,1456,-2608,-226,857
0.01659218,-16384,164,1648,-2592,-161,786
0.01659244,-16236,352,1532,-2592,-239,779
0.01659381,-16168,288,1252,-2608,-167,447
0.01659321,-16364,312,1212,-2640,-54,108
0.01659226,-16392,308,1392,-2608,-115,185
0.01659324,-16160,116,1556,-2560,-140,223
0.01659334,-16432,184,1528,-2640,-194,222
0.01659422,-16464,140,1580,-2576,-347,614
0.01659141,-16284,204,1236,-2576,-339,681
0.01659141,-16524,156,1276,-2624,-168,474
0.01659333,-16232,364,1128,-2624,-105,319
0.01659317,-16268,208,1248,-2608,-155,575
0.01659317,-16204,328,992,-2608,-218,634
0.01659252,-16464,224,976,-2592,-168,532
0.01659185,-16512,324,1384,-2576,-302,830
0.01659185,-16200,248,1476,-2608,-590,2978
0.01659129,-16196,788,984,-2576,-238,2362
0.01659333,-16496,12,572,-2608,-249,1222
0.01659333,-16572,636,432,-2560,-290,756
0.01659143,-16412,512,632,-2576,-86,162
0.01659512,-16308,440,572,-2576,21,88
0.01659185,-16488,456,724,-2608,-43,168
0.01659179,-16580,360,772,-2608,-200,339
0.01659417,-16604,500,672,-2592,-244,547
0.01659122,-16216,600,548,-2640,-163,354
0.0165919,-16432,484,652,-2592,-88,285
0.01659387,-16260,328,784,-2592,-178,585
0.01659387,-16256,484,724,-2592,-217,436
0.01659239,-16628,736,452,-2624,-235,431
0.01659228,-16260,728,372,-2608,-143,137
0.01659228,-16348,600,704,-2592,-227,436
0.01659013,-16404,684,560,-2592,-266,393
0.01658944,-16472,616,632,-2608,-214,311
0.01658866,-16440,564,432,-2592,-212,346
0.01659245,-16608,536,488,-2592,-208,423
0.01659245,-16348,576,460,-2624,-149,409
0.01659512,-16328,536,580,-2576,-152,280
0.01659284,-16448,560,512,-2560,-250,294
0.01659284,-16588,592,600,-2608,-206,550
0.01659144,-16420,632,364,-2656,-217,533
0.01659509,-16512,888,320,-2576,-149,408
0.01642426,-16404,768,348,-2576,-193,330
0.01659275,-16532,764,304,-2592,-131,450
0.01659275,-16624,716,-28,-2592,-52,145
0.01658895,-16428,516,492,-2576,-131,171
0.01659339,-16624,556,420,-2592,-267,556
0.01659339,-16452,792,264,-2608,-211,372
0.01659291,-16604,808,204,-2608,-228,505
0.01659288,-16436,820,228,-2592,-99,989
0.01659222,-16552,652,468,-2576,-90,320
0.0165918,-16516,764,216,-2608,-187,531
0.01659092,-16264,768,352,-2592,-6,854
0.01659312,-16392,724,184,-2592,-183,411
0.01659312,-16692,748,-208,-2608,-119,584
0.01659298,-16680,976,-444,-2608,156,847
0.01659239,-16192,844,-16,-2608,252,535
0.01659119,-16140,548,240,-2608,-209,212
0.01659637,-16592,788,160,-2608,-170,374
0.01659112,-16596,720,60,-2608,-280,586
0.01642526,-16444,828,-120,-2592,-196,442
0.01659147,-16264,764,44,-2576,-116,230
0.01659201,-16492,832,-32,-2576,-225,568
0.01659201,-16400,812,88,-2608,-181,521
0.01659481,-16352,1104,-20,-2608,-222,750
0.01658963,-16496,872,-196,-2608,-225,599
0.01659298,-16540,832,-304,-2576,-190,528
0.01659337,-16488,808,-204,-2560,-172,389
0.01659217,-16508,852,-192,-2576,-209,558
0.01659217,-16420,992,-232,-2576,-186,442
0.01659146,-16408,928,-268,-2608,-59,337
0.01659264,-16284,972,-328,-2576,-84,236
0.01659412,-16420,952,-240,-2576,-117,236
0.01659291,-16616,728,-400,-2576,-190,344
0.01659291,-16352,1028,-212,-2608,-183,240
0.0165931,-16484,924,-132,-2592,-208,385
0.0165931,-16496,896,-248,-2608,-271,416
0.01659151,-16484,812,-332,-2576,-149,241
0.01659205,-16308,1088,-504,-2608,-120,326
0.01659205,-16544,856,-388,-2608,-61,201
0.01659294,-16572,940,-236,-2544,-195,485
0.01659294,-16332,888,-400,-2592,-185,186
0.01659136,-16496,964,-308,-2592,-103,271
0.01659265,-16640,1020,-444,-2608,-96,304
0.01659262,-16592,944,-436,-2576,-32,107
0.01659262,-16428,952,-560,-2576,-82,154
0.01659046,-16344,1004,-452,-2608,-42,93
0.01659046,-16440,1020,-240,-2592,-76,107
0.01659174,-16636,872,-472,-2576,-70,-22
0.01659266,-16276,800,-388,-2608,-51,-57
0.01659266,-16496,800,-260,-2592,-7,82
0.01659216,-16392,928,-300,-2592,-175,353
0.01659216,-16256,968,-332,-2592,-151,296
0.01659214,-16336,996,-396,-2592,-92,157
0.01659353,-16476,884,-556,-2624,1,69
0.01659311,-16524,852,-188,-2592,-75,191
0.01659311,-16524,812,-440,-2608,-173,259
0.0165918,-16292,984,-364,-2592,-90,109
0.01659242,-16396,928,-444,-2608,-153,150
0.01659242,-16484,944,-424,-2592,-145,162
0.01659226,-16380,900,-224,-2608,-140,96
0.01659226,-16360,1044,-412,-2560,-162,171
0.01659227,-16568,872,-168,-2608,-70,127
0.01659308,-16284,868,-364,-2608,-41,91
0.01659308,-16696,756,-456,-2576,-24,94
0.01659438,-16400,976,-220,-2592,-27,150
0.01659438,-16468,912,-280,-2592,-71,173
0.01659322,-16484,896,-444,-2560,-53,142
0.01659162,-16400,948,-344,-2592,-67,94
0.01659162,-16664,956,-596,-2560,19,-80
0.01659056,-16720,964,-372,-2592,138,-16
0.01658977,-16540,868,-272,-2608,85,-126
0.01658977,-16628,808,-76,-2576,79,-51
0.01659222,-16336,924,-364,-2592,38,140
0.01659248,-16392,968,-468,-2576,163,-249
0.01659248,-16372,896,-172,-2576,198,-340
0.0165929,-16608,804,-160,-2576,66,-81
0.01659165,-16312,944,-328,-2576,21,-167
0.0165916,-16448,812,-72,-2576,66,-279
0.01659308,-16692,904,-44,-2576,-23,-250
0.01659378,-16452,664,-160,-2608,-45,-205
0.01648244,-16440,844,-284,-2608,66,-362
0.01648244,-16280,884,-88,-2608,64,-414
0.01659176,-16536,696,-140,-2592,5,-387
0.01659212,-16424,776,-172,-2576,37,-651
0.01659203,-16536,668,372,-2576,133,-876
0.01659203,-16788,544,532,-2576,-60,-86
0.01659202,-16580,724,-8,-2592,-109,-234
0.01659202,-16212,996,56,-2576,151,-299
0.01659255,-16516,724,304,-2560,128,-607
0.01659255,-16532,452,452,-2544,-20,-501
0.0165923,-16528,584,264,-2576,-53,-240
0.01659181,-16512,660,504,-2592,-55,-308
0.01659181,-16636,516,184,-2576,0,-380
0.01659219,-16208,760,348,-2608,78,-819
0.01659219,-16352,532,444,-2560,119,-1068
0.01659308,-16276,548,776,-2544,137,-581
0.01659385,-16692,544,616,-2592,77,-344
0.01659118,-16524,540,912,-2544,109,-341
0.01659118,-16524,468,632,-2576,19,-301
0.01659222,-16404,432,820,-2576,116,-521
0.01659441,-16348,420,860,-2576,201,-423
0.01659441,-16592,412,664,-2576,186,-493
0.01659086,-16400,488,1100,-2592,198,-598
0.01659266,-16248,384,1008,-2592,124,-508
0.01659266,-16444,472,1100,-2592,94,-564
0.01659334,-16376,432,1024,-2576,77,-312
0.01659231,-16380,448,948,-2560,203,-126
0.01659231,-16196,528,1056,-2592,271,-288
0.01659224,-16460,408,1100,-2592,167,-185
0.01659212,-16512,428,1044,-2592,48,-87
0.01659218,-16164,400,964,-2560,115,-249
0.01659129,-16256,340,1256,-2576,172,-332
0.01659259,-16508,192,1508,-2576,99,-193
0.01659241,-16304,296,1272,-2576,31,-207
0.01659241,-16216,356,1368,-2608,-42,-80
0.01659224,-16460,364,1180,-2576,-39,59
0.01659117,-16216,472,1168,-2560,35,-21
0.01659316,-16472,252,1312,-2560,95,-87
0.01659316,-16352,420,1224,-2560,11,76
0.01659301,-16248,380,1272,-2576,95,-73
0.01659173,-16320,296,1300,-2592,133,-158
0.01659173,-16172,416,1412,-2576,106,-241
0.01659225,-16484,408,1452,-2576,108,-248
0.01659225,-16292,228,1444,-2576,89,-223
0.01659172,-16180,276,1364,-2592,132,-109
0.01659413,-16448,332,1472,-2544,71,-304
0.01659262,-16380,300,1528,-2576,55,-51
0.01659395,-16464,192,1228,-2576,19,-71
0.01659383,-16400,224,1636,-2576,75,-35
0.01659222,-16240,296,1668,-2576,-48,186
0.01566724,-16408,408,1500,-2576,-184,145
0.01751778,-16356,392,1248,-2576,-40,54
0.0165924,-16348,408,1456,-2608,3,-28
0.01658904,-16384,440,1560,-2576,-34,15
0.01658904,-16092,392,1616,-2576,-72,71
0.01659058,-16376,328,1500,-2576,-97,219
0.01659344,-16276,432,1496,-2608,55,-85
0.01659344,-16128,412,1700,-2560,48,58
0.01485012,-16432,288,1588,-2576,-3,198
0.01833481,-16464,144,1456,-2576,-62,23
0.01659257,-16232,356,1556,-2576,-3,-58
0.01659257,-16360,440,1516,-2608,51,96
0.01659199,-16268,468,1532,-2576,-21,277
0.0165924,-16296,276,1736,-2576,-159,127
0.01659267,-16132,408,1384,-2592,-203,16
0.01659181,-16416,440,1468,-2592,-159,41
0.01659225,-16504,260,1624,-2576,-93,77
0.01659225,-16184,244,1828,-2560,-161,153
0.01659337,-16408,256,1612,-2576,-130,130
0.01659304,-16372,268,1652,-2576,-111,105
0.01659056,-16100,308,1576,-2608,-56,206
0.01659222,-16288,228,1556,-2544,-100,101
0.01659234,-16260,480,1708,-2560,24,14
0.01659449,-16232,292,1696,-2544,-69,267
0.01659246,-16384,288,1660,-2560,-135,263
0.01659173,-16092,320,1620,-2544,-1,102
0.01659266,-16308,244,1772,-2576,-87,190
0.0165916,-16236,440,1672,-2576,-131,160
0.01659294,-16268,300,1508,-2592,-91,123
0.01659294,-16308,292,1716,-2608,-106,254
0.0165917,-16292,400,1416,-2544,-88,258
0.01659011,-16180,476,1480,-2560,86,133
0.01659011,-16172,320,1644,-2560,-39,171
0.01659152,-16440,260,1504,-2576,8,31
0.01659371,-16172,292,1552,-2592,41,-29
0.01659218,-16492,328,1776,-2592,-152,271
0.01659335,-16428,396,1472,-2544,-163,284
0.01659245,-16472,260,1636,-2544,-119,206
0.01659245,-16340,360,1468,-2544,-147,154
0.01659293,-16144,468,1560,-2576,-120,50
0.01659218,-16484,376,1572,-2576,-187,85
0.01659163,-16484,372,1560,-2576,-158,171
0.01659163,-16128,268,1620,-2608,-132,143
0.01659259,-16348,328,1580,-2592,-181,108
0.01675566,-16068,264,1728,-2560,-126,208
0.01659221,-16452,444,1484,-2576,-79,112
0.01659226,-16540,240,1840,-2576,-33,101
0.01659303,-16336,216,1632,-2560,-144,395
0.01659303,-16348,308,1352,-2576,-168,341
0.01659384,-16308,536,1280,-2560,-46,214
0.01659379,-16496,268,1728,-2560,-17,128
0.01659163,-16248,408,1664,-2576,-139,257
0.01659308,-16356,232,1500,-2592,-211,293
0.01659111,-16160,612,1552,-2544,-181,245
0.01659111,-16480,312,1596,-2560,-131,90
0.01659435,-16224,336,1276,-2560,-151,298
0.01659409,-16144,280,1564,-2528,-192,244
0.01659409,-16116,452,1588,-2544,-346,385
0.01659254,-16228,364,1484,-2576,-162,241
0.01659337,-16316,352,1552,-2544,-81,235
0.01659242,-16328,448,1660,-2592,-11,174
0.01659242,-16316,320,1508,-2560,-126,290
0.01659269,-16504,196,1524,-2576,-104,229
0.01659548,-16156,388,1476,-2544,-160,339
0.0165915,-16476,256,1492,-2560,-244,335
0.01643472,-16184,408,1400,-2560,-252,259
0.01659004,-16404,320,1344,-2560,-241,303
0.01659238,-16288,352,1496,-2576,-184,279
0.01659238,-16072,228,1628,-2528,-260,418
0.01659341,-16424,224,1456,-2544,-309,449
0.01659258,-16160,464,1288,-2576,-311,388
0.01659078,-16564,360,1140,-2560,-267,289
0.01659249,-16420,372,1376,-2544,-92,287
0.01659287,-16236,436,1332,-2576,-156,406
0.01659381,-16372,320,1616,-2576,-286,590
0.01659381,-16452,236,1396,-2544,-318,663
0.01659218,-16544,416,1256,-2576,-333,724
0.01659125,-16256,356,1136,-2576,-174,489
0.01659125,-16552,288,1224,-2560,-221,337
0.01659139,-16360,464,1040,-2560,-217,309
0.01659282,-16364,288,1256,-2576,-59,233
0.01659236,-16572,348,1056,-2544,-57,337
0.01659236,-16116,236,1440,-2544,-93,431
0.01659376,-16200,500,1536,-2560,-118,354
0.01659475,-16128,452,1256,-2560,-354,161
0.01659068,-16488,556,964,-2560,-439,234
0.01659237,-16412,420,1024,-2544,-350,197
0.0165918,-16476,340,1216,-2560,-317,378
0.0165918,-16504,292,968,-2560,-220,465
0.0165931,-16236,528,1160,-2560,-245,478
0.01659092,-16392,368,1176,-2560,-224,490
0.01659092,-16512,384,1088,-2576,-114,372
0.01659552,-16516,320,928,-2528,-244,501
0.01659067,-16596,516,912,-2544,-223,459
0.01659377,-16280,532,1008,-2544,-101,367
0.01659377,-16328,448,1036,-2544,-109,551
0.01659666,-16164,612,1044,-2576,-52,392
0.01659264,-16348,432,932,-2576,-71,254
0.01659264,-16712,496,812,-2560,-148,347
0.01659242,-16252,572,988,-2576,-58,344
0.01659339,-16244,356,816,-2560,-53,244
0.01659339,-16300,324,896,-2560,-196,248
0.01658873,-16304,512,1024,-2560,-235,445
0.01658873,-16660,296,576,-2576,-64,249
0.01659224,-16540,388,876,-2576,-54,174
