Time,Ax,Ay,Az,Gx,Gy,Gz,Breathing,Ground Truth
6.421264,0,0,0,0,0,0,0,0
6.421264,-9357.026,-2193.518,-527.4738,-7111.666,-1403.736,-321.719,0,0
6.520803,-12539.78,-2997.76,-649.8147,-8776.737,-1820.675,-479.0133,0,0
6.520803,-12643.73,-2889.187,-792.6179,-9315.875,-1886.065,-445.9278,0,0
6.520803,-12199.44,-2816.04,-739.8365,-9479.843,-1954.811,-411.1532,0,0
6.520803,-11844.88,-2720.861,-652.7805,-9555.361,-1916.233,-462.0436,0,0
6.520803,-11669.68,-2610.782,-642.8856,-9628.618,-1935.143,-376.0998,0,0
6.520803,-11571.09,-2539.115,-557.6677,-9644.509,-1942.913,-287.0939,0,0
6.520803,-11494.61,-2519.812,-566.9675,-9586.559,-1881.563,-285.8773,0,0
6.570571,-11472.11,-2554.059,-430.8162,-9524.365,-1921.369,-274.3746,0,0
6.587162,-11435.69,-2534.799,-527.1906,-9420.197,-2000.402,-286.4451,0,0
6.653521,-11351.96,-2593.623,-569.8564,-9293.458,-1955.797,-418.7549,0,0
6.653521,-11254.45,-2555.345,-609.3069,-9195.749,-1920.901,-391.4998,0,0
6.686702,-11167.02,-2508.216,-583.2646,-9102.71,-1909.536,-366.8405,0,0
6.686702,-11064.64,-2506.244,-624.4267,-9011.563,-1857.255,-475.6188,0,0
6.736467,-11017.07,-2504.687,-703.6562,-8961.914,-1853.193,-368.9145,0,0
6.736467,-10936.9,-2514.573,-632.5813,-8901.914,-1831.194,-483.362,0,0
6.769649,-10870.15,-2493.56,-582.3983,-8843.558,-1825.471,-382.0082,0,0
6.819417,-10872.45,-2419.236,-577.1076,-8833.659,-1873.107,-328.6289,0,0
6.869188,-10834.94,-2415.128,-688.5129,-8793.576,-1832.906,-439.2207,0,0
6.869188,-10750.26,-2454.918,-654.8644,-8726.995,-1737.804,-521.4092,0,0
6.918955,-10714.01,-2384.347,-664.7859,-8693.92,-1763.614,-456.5938,0,0
6.918955,-10714.11,-2366.692,-678.6772,-8689.37,-1768.034,-445.4288,0,0
6.968724,-10707.68,-2390.361,-709.356,-8671.561,-1769.807,-442.7258,0,0
7.001905,-10646.1,-2367.696,-670.0762,-8625.5,-1732.66,-447.5702,0,0
7.001905,-10624.42,-2354.212,-616.776,-8606.105,-1719.359,-385.3564,0,0
7.051672,-10639.08,-2335.838,-632.0967,-8619.283,-1745.649,-386.6294,0,0
7.051672,-10615.74,-2387.685,-607.385,-8594.802,-1804.512,-396.6556,0,0
7.101442,-10592.75,-2460.939,-617.1257,-8579.787,-1802.798,-399.7956,0,0
7.101442,-10581.75,-2378.046,-628.2282,-8560.914,-1764.888,-416.4248,0,0
7.134621,-10584.67,-2350.877,-641.8586,-8575.063,-1721.103,-429.954,0,0
7.184384,-10573.12,-2355.971,-604.3322,-8564.978,-1742.571,-374.2088,0,0
7.184384,-10562.04,-2335.653,-613.7088,-8555.437,-1718.842,-357.542,0,0
7.234155,-10548.22,-2337.349,-552.2166,-8543.97,-1712.864,-370.9911,0,0
7.234155,-10554.14,-2320.53,-605.8364,-8534.431,-1721.02,-381.0124,0,0
7.267336,-10558.31,-2332.281,-596.8532,-8554.664,-1722.759,-396.2742,0,0
7.283922,-10553.17,-2315.829,-619.5659,-8532.362,-1748.641,-413.2859,0,0
7.333688,-10561.02,-2369.91,-660.1498,-8546.693,-1782.371,-415.886,0,0
7.366868,-10553.72,-2394.36,-637.5496,-8536.178,-1803.825,-359.1005,0,0
7.366868,-10533.04,-2422.625,-626.1854,-8524.402,-1779.653,-458.7045,0,0
7.416633,-10533.67,-2379.43,-640.1945,-8520.148,-1739.182,-431.5247,0,0
7.416633,-10572.23,-2319.551,-645.8073,-8553.751,-1694.5,-446.1792,0,0
7.449814,-10557.67,-2346.428,-582.6123,-8546.672,-1685.535,-416.5918,0,0
7.466402,-10534.2,-2347.424,-551.135,-8524.026,-1763.664,-315.0559,0,0
7.516171,-10533.3,-2334.037,-602.2424,-8518.737,-1773.021,-327.808,0,0
7.516171,-10504.73,-2388.761,-562.3203,-8487.933,-1729.697,-461.9996,0,0
7.549348,-10492.23,-2371.01,-614.0291,-8478.397,-1770.07,-445.4482,0,0
7.582527,-10524.87,-2338.645,-703.124,-8516.658,-1749.392,-440.1995,0,0
7.599116,-10525.25,-2360.479,-696.5684,-8503.549,-1705.685,-508.0075,0,0
7.632293,-10512.93,-2384.676,-684.9111,-8494.075,-1708.699,-483.4684,0,0
7.64888,-10493.47,-2341.552,-639.233,-8488.077,-1731.993,-338.9209,0,0
7.682059,-10531.02,-2429.212,-558.6415,-8516.785,-1843.524,-156.8202,0,0
7.682059,-10528.52,-2395.643,-470.938,-8510.341,-1790.904,-176.1807,0,0
7.731827,-10534.59,-2396.154,-506.5412,-8528.19,-1783.64,-273.3869,0,0
7.765004,-10517.11,-2387.119,-526.0182,-8510.301,-1756.939,-328.2707,0,0
7.781593,-10534.4,-2375.487,-547.2097,-8514.608,-1782.631,-333.849,0,0
7.814772,-10554.24,-2364.061,-626.9432,-8534.111,-1759.988,-356.8929,0,0
7.83136,-10531.35,-2368.887,-593.5123,-8503.195,-1738.477,-386.101,0,0
7.864541,-10530.93,-2350.249,-634.6113,-8516.149,-1771.377,-430.3967,0,0
7.914312,-10539.69,-2359.938,-674.8902,-8518.367,-1792.349,-412.4068,0,0
7.914312,-10528.03,-2395.871,-639.7654,-8513.837,-1800.883,-479.1969,0,0
7.964079,-10501.28,-2406.677,-652.892,-8488.965,-1855.508,-529.0452,0,0
7.964079,-10488.98,-2442.667,-708.3265,-8484.104,-1905.965,-566.4949,0,0
7.99726,-10515.3,-2452.034,-745.2415,-8499.884,-1946.741,-570.2671,0,0
8.047027,-10500.81,-2468.323,-786.2562,-8497.705,-1872.539,-642.2293,0,0
8.047027,-10473.72,-2489.826,-749.6774,-8459.351,-1906.639,-543.4464,0,0
8.096796,-10545.36,-2475.627,-704.6262,-8527.52,-2016.978,-446.6125,0,0
8.129973,-10580.8,-2598.275,-706.8652,-8541.138,-2095.896,-501.999,0,0
8.179742,-10533.38,-2655.477,-638.3088,-8522.44,-2054.414,-638.3747,0,0
8.179742,-10540.05,-2575.151,-753.4741,-8531.9,-2090.263,-538.747,0,0
8.229503,-10525.04,-2518.782,-774.356,-8511.495,-1950.718,-562.9695,0,0
8.262683,-10468.43,-2483.744,-760.3865,-8468.277,-1828.794,-592.3727,0,0
8.279271,-10451.07,-2380.611,-730.4471,-8450.814,-1699.848,-528.4426,0,0
8.312449,-10478.97,-2322.469,-656.9988,-8467.949,-1742.546,-282.5478,0,0
8.395397,-10516.61,-2490.977,-536.9312,-8505.686,-1797.021,-154.6645,0,0
8.395397,-10513.34,-2430.853,-450.1228,-8503.149,-1777.793,-24.6727,0,0
8.494934,-10519.13,-2385.366,-378.6968,-8503.116,-1726.418,-37.50243,0,0
8.494934,-10482.51,-2340.942,-415.486,-8461.841,-1675.209,-236.7587,0,0
8.528113,-10458.82,-2322.295,-526.7282,-8457.187,-1625.284,-365.0491,0,0
8.544703,-10490.9,-2284.784,-569.701,-8473.003,-1634.716,-308.2431,0,0
8.577884,-10493.11,-2270.551,-605.015,-8483.613,-1617.866,-314.298,0,0
8.577884,-10475.78,-2190.77,-568.7079,-8470.417,-1550.425,-207.9727,0,0
8.627647,-10467.99,-2049.25,-512.0413,-8460.13,-1326.157,-15.79482,0,0
8.660824,-10497.91,-2138.462,-379.1028,-8487.519,-1490.029,16.96032,0,0
8.677413,-10526.62,-2253.793,-344.1384,-8504.984,-1576.452,176.2892,0,0
8.710594,-10538.76,-2276.021,-337.7667,-8509.708,-1557.485,230.121,0,0
8.727181,-10402.65,-2249.636,-262.5973,-8418.964,-1558.421,6.916707,0,0
8.810129,-10376.76,-2292.794,-503.163,-8395.141,-1602.214,-273.735,0,0
8.843307,-10448.71,-2313.139,-715.5046,-8450.5,-1640.001,-421.6542,0,0
8.859896,-10508.94,-2319.876,-793.2958,-8492.158,-1653.137,-452.8276,0,0
8.893076,-10475.35,-2358.655,-762.7362,-8466.397,-1704.816,-447.4261,0,0
8.893076,-10445.68,-2375.786,-752.0243,-8434.907,-1841.976,-378.1718,0,0
8.942842,-10419.51,-2455.821,-830.0892,-8423.948,-1885.869,-465.3141,0,0
8.97602,-10444.59,-2486.38,-852.5707,-8434.44,-1793.751,-586.4586,0,0
8.992612,-10427.26,-2496.123,-901.9697,-8439.059,-1847.709,-650.6671,0,0
9.02579,-10450.88,-2525.681,-1006.241,-8452.781,-1928.344,-656.6621,0,0
9.075055,-10439.27,-2625.333,-979.4326,-8435.091,-1968.146,-668.3044,0,0
9.075055,-10408.1,-2613.732,-975.9744,-8424.688,-1972.111,-617.9144,0,0
9.124823,-10381.48,-2555.993,-967.3826,-8395.686,-1986.959,-429.537,0,0
9.124823,-10421.61,-2572.146,-896.9169,-8417.727,-1882.532,-421.0221,0,0
9.174517,-10409.8,-2565.947,-746.1603,-8422.121,-1836.652,-480.2162,0,0
9.207672,-10418.83,-2474.03,-865.7074,-8424.694,-1907.462,-465.673,0,0
9.257407,-10441.93,-2534.675,-905.2968,-8451.27,-1963.516,-494.5636,0,0
9.257407,-10457.8,-2520.633,-970.2565,-8458.917,-1877.581,-567.6207,0,0
9.307141,-10486.83,-2459.084,-948.0038,-8467.697,-1756.761,-603.4767,0,0
9.3403,-10485.63,-2362.407,-990.3569,-8475.487,-1633.088,-578.7306,0,0
9.390032,-10510.27,-2245.194,-916.5453,-8494.135,-1529.643,-393.3345,0,0
9.390032,-10497.71,-2135.035,-953.0328,-8471.025,-1493.194,-456.4419,0,0
9.439766,-10441.11,-2242.552,-928.0852,-8436.552,-1622.819,-689.0028,0,0
9.489501,-10448.03,-2302.607,-1050.132,-8450.782,-1718.049,-727.2834,0,0
9.522658,-10486.65,-2387.957,-1089.593,-8471.426,-1770.415,-818.2866,0,0
9.522658,-10454.71,-2480.026,-1200.236,-8455.805,-1810.416,-901.95,0,0
9.572391,-10439.44,-2510.269,-1207.449,-8439.724,-1847.814,-803.0533,0,0
9.622124,-10430.53,-2529.541,-1181.603,-8428.57,-1916.612,-773.9947,0,0
9.622124,-10412.14,-2578.242,-1205.043,-8410.213,-1922.151,-777.5266,0,0
9.671855,-10358.39,-2619.443,-1138.256,-8378.23,-1951.55,-751.264,0,0
9.705009,-10407.39,-2592.42,-1075.543,-8415.976,-2049.542,-659.1558,0,0
9.755185,-10428.66,-2590.135,-1031.51,-8432.335,-2010.412,-622.4102,0,0
9.755185,-10381.39,-2569.46,-1133.09,-8387.418,-1931.393,-792.8244,0,0
9.83811,-10381.58,-2495.285,-1174.411,-8392.215,-1825.121,-883.6756,0,0
9.887875,-10446.38,-2503.729,-1310.76,-8446.3,-1827.214,-873.7343,0,0
9.937631,-10444.5,-2469.933,-1222.399,-8435.906,-1807.28,-818.0936,0,0
9.937631,-10428.73,-2471.454,-1190.323,-8428.246,-1835.188,-752.932,0,0
9.9874,-10431.73,-2457.454,-1119.117,-8430.54,-1775.002,-675.8968,0,0
10.02058,-10442.33,-2407.185,-1108.982,-8447.491,-1703.906,-636.9669,0,0
10.02058,-10392.1,-2373.188,-1084.924,-8400.214,-1637.439,-734.2906,0,0
10.07034,-10381.54,-2352.886,-1131.76,-8392.304,-1642.249,-798.578,0,0
10.07034,-10417.76,-2322.868,-1200.677,-8411.269,-1637.943,-847.0724,0,0
10.1201,-10438.97,-2330.191,-1216.27,-8440.787,-1695.936,-901.4385,0,0
10.15327,-10477,-2387.206,-1230.709,-8456.443,-1829.313,-822.4363,0,0
10.16987,-10453.34,-2460.464,-1234.089,-8447.062,-1886.278,-783.1132,0,0
10.20304,-10407.28,-2483.782,-1213.695,-8411.812,-1837.271,-921.0143,0,0
10.2528,-10444.64,-2482.56,-1285.542,-8422.696,-1822.802,-978.4233,0,0
10.28598,-10411.97,-2502.31,-1263.389,-8415.458,-1832.436,-856.393,0,0
10.30256,-10384.34,-2417.501,-1195.1,-8390.005,-1830.066,-784.0146,0,0
10.33574,-10389.41,-2475.492,-1226.12,-8398.48,-1818.927,-856.4651,0,0
10.33574,-10392.71,-2482.355,-1232.637,-8401.125,-1772.542,-885.8863,0,0
10.3855,-10384.87,-2425.78,-1283.692,-8395.241,-1734.332,-925.1513,0,0
10.41867,-10380.49,-2442.151,-1293.363,-8392.017,-1783.03,-947.3375,0,0
10.46844,-10420.25,-2470.61,-1291.04,-8413.625,-1810.878,-921.8477,0,0
10.46844,-10376.95,-2467.461,-1272.269,-8384.979,-1826.936,-906.6246,0,0
10.5182,-10407.22,-2474.097,-1278.094,-8412.656,-1824.41,-906.4094,0,0
10.56796,-10456.1,-2445.46,-1279.914,-8445.531,-1757.852,-976.82,0,0
10.60114,-10447.85,-2430.065,-1314.618,-8439.048,-1686.668,-1157.217,0,0
10.61773,-10374.06,-2337.097,-1347.772,-8382.594,-1693.265,-994.7861,0,0
10.6509,-10406.34,-2385.822,-1253.979,-8416.264,-1749.733,-860.4629,0,0
10.70066,-10427.7,-2349.472,-1170.098,-8423.705,-1749.016,-735.636,0,0
10.70066,-10393.45,-2392.366,-1149.349,-8401.939,-1705.268,-813.7041,0,0
10.73422,-10402.34,-2365.736,-1140.844,-8404.362,-1671.579,-836.3955,0,0
10.78398,-10408.67,-2402.314,-1105.369,-8400.366,-1764.347,-814.0537,0,0
10.83381,-10425.58,-2440.11,-1191.709,-8422.168,-1799.012,-851.2778,0,0
10.83381,-10400.11,-2478.669,-1188.18,-8398.239,-1871.49,-772.5104,0,0
10.8836,-10375.2,-2529.325,-1128.147,-8388.143,-1903.953,-748.5517,0,0
10.9168,-10360.96,-2535.901,-1083.654,-8368.531,-1920.911,-764.8569,0,0
10.9334,-10372.72,-2559.413,-1116.533,-8390.993,-1911.197,-836.9103,0,0
10.96659,-10457.59,-2597.983,-1123.121,-8442.572,-1914.113,-902.4645,0,0
10.99978,-10386.08,-2515.464,-1222.031,-8392.2,-1876.909,-835.3079,0,0
11.04958,-10364.2,-2508.909,-1199.324,-8371.144,-1837.352,-948.0605,0,0
11.09937,-10434.66,-2481.853,-1222.219,-8420.649,-1762.054,-919.2839,0,0
11.09937,-10414.83,-2437.65,-1218.771,-8414.259,-1783.299,-772.1286,0,0
11.14917,-10404.35,-2455.215,-1116.203,-8406.206,-1795.224,-755.7268,0,0
11.18236,-10385.99,-2430.106,-1077.449,-8387.759,-1736.55,-800.7382,0,0
11.19896,-10371.95,-2403.19,-1146.586,-8377.115,-1695.227,-940.2318,0,0
11.23215,-10368.36,-2380.826,-1182.304,-8374.497,-1743.907,-927.4329,0,0
11.28194,-10427.41,-2432.805,-1172.282,-8424.128,-1794.948,-802.4238,0,0
11.28194,-10409.89,-2474.135,-1143.154,-8415.056,-1817.388,-742.9162,0,0
11.33174,-10395.13,-2498.956,-1062.455,-8394.869,-1789.973,-802.9196,0,0
11.41473,-10395.21,-2475.654,-1054.436,-8394.958,-1786.221,-727.5863,0,0
11.41473,-10413.02,-2440.632,-1043.764,-8413.012,-1799.624,-690.5381,0,0
11.46452,-10392.45,-2497.448,-974.9493,-8388.384,-1832.494,-651.8159,0,0
11.54751,-10341.51,-2495.847,-961.5386,-8349.553,-1839.408,-658.6083,0,0
11.54751,-10350.8,-2522.014,-902.0434,-8370.176,-1911.837,-670.8738,0,0
11.6305,-10423.25,-2599.241,-993.0016,-8416.757,-2008.917,-844.265,0,0
11.6471,-10443.27,-2682.796,-1029.393,-8431.912,-2157.013,-755.4517,0,0
11.73008,-10476.83,-2665.372,-1112.185,-8452.906,-2056.164,-679.4686,0,0
11.73008,-10454.93,-2571.846,-1081.814,-8449.199,-1788.492,-753.6043,0,0
11.77988,-10426.4,-2443.463,-1079.86,-8431.648,-1594.52,-814.698,0,0
11.77988,-10422.85,-2375.57,-999.0956,-8419.993,-1576.75,-687.5504,0,0
11.81307,-10420.53,-2362.933,-970.7762,-8413.755,-1640.303,-611.7075,0,0
11.86287,-10393.58,-2355.838,-928.7714,-8388.737,-1650.543,-642.7627,0,0
11.86287,-10380.07,-2409.751,-978.5481,-8382.955,-1686.496,-718.0823,0,0
11.91266,-10396.83,-2425.47,-956.6297,-8395.879,-1762.825,-712.0379,0,0
11.91266,-10403.46,-2477.387,-969.9431,-8400.989,-1867.65,-642.9197,0,0
12.06204,-10386.34,-2572.9,-963.8749,-8387.947,-1963.021,-677.9241,0,0
12.09523,-10425.19,-2641.929,-983.1454,-8404.39,-1990.429,-726.078,0,0
12.09523,-10426.65,-2586.765,-993.4701,-8418.757,-1978.289,-611.308,0,0
12.14502,-10408.77,-2574.676,-965.6986,-8400.603,-1963.529,-613.3664,0,0
12.14502,-10371.62,-2572.891,-940.9996,-8372.255,-1934.875,-643.5515,0,0
12.17822,-10382.2,-2521.815,-921.1699,-8380.486,-1889.48,-590.1664,0,0
12.17822,-10398.58,-2510.247,-932.7651,-8393.08,-1844.023,-566.7194,0,0
12.22801,-10402.7,-2509.85,-881.9686,-8396.253,-1821.628,-605.861,0,0
12.2778,-10447.23,-2429.672,-934.4647,-8434.679,-1733.671,-563.4727,0,0
12.2778,-10392.28,-2422.636,-871.3021,-8383.688,-1745.104,-508.0768,0,0
12.311,-10364.39,-2470.591,-911.4152,-8371.337,-1744.169,-582.6984,0,0
12.3276,-10385,-2450.209,-900.0935,-8391.655,-1746.319,-592.8245,0,0
12.36079,-10396.18,-2449.925,-877.0303,-8386.938,-1790.407,-481.5239,0,0
12.36079,-10366.01,-2426.229,-847.6943,-8359.506,-1847.516,-471.5085,0,0
12.41058,-10392.8,-2445.636,-859.3903,-8384.537,-1821.113,-503.9256,0,0
12.44378,-10416.42,-2454.288,-849.1332,-8402.588,-1819.748,-541.5898,0,0
12.46038,-10444.57,-2463.255,-897.0697,-8437.295,-1862.913,-579.5382,0,0
12.49357,-10508.59,-2471.85,-981.5551,-8477.105,-1820.65,-605.8444,0,0
12.49357,-10478.83,-2446.142,-962.7065,-8449.547,-1749.795,-633.6246,0,0
12.54336,-10468.55,-2384.365,-1033.611,-8441.471,-1669.346,-673.9709,0,0
12.59316,-10472.16,-2317.761,-1054.084,-8444.052,-1632.583,-610.5201,0,0
12.59316,-10451.8,-2292.542,-955.3532,-8432.781,-1585.48,-535.7081,0,0
12.62635,-10385.48,-2292.731,-871.618,-8390.941,-1629.589,-545.8652,0,0
12.64295,-10391.29,-2329.333,-914.0215,-8386.672,-1699.65,-556.3451,0,0
12.67614,-10375.98,-2385.492,-984.2167,-8375.134,-1771.048,-628.6083,0,0
12.72594,-10396.15,-2468.934,-1074.788,-8390.713,-1782.646,-763.4595,0,0
12.72594,-10415.93,-2455.417,-1077.63,-8405.897,-1806.442,-745.8479,0,0
12.77524,-10409.83,-2456.78,-1059.115,-8405.68,-1902.248,-613.9998,0,0
12.80844,-10378.66,-2464.332,-1026.665,-8373.041,-1906.484,-599.3082,0,0
12.80844,-10331.68,-2488.198,-1002.07,-8341.761,-1856.171,-661.9094,0,0
12.85822,-10322.45,-2489.242,-995.5814,-8330.595,-1836.733,-710.2762,0,0
12.90801,-10334.18,-2484.094,-985.8629,-8339.864,-1856.675,-700.9838,0,0
12.9412,-10338.21,-2485.824,-1012.933,-8347.606,-1902.354,-673.3095,0,0
12.9578,-10357.63,-2487.235,-1109.036,-8367.047,-1879.3,-780.3276,0,0
12.99099,-10413.59,-2478.202,-1199.252,-8400.981,-1805.706,-903.1935,0,0
13.04078,-10480.43,-2397.458,-1275.692,-8447.45,-1702.232,-918.2054,0,0
13.04078,-10470.21,-2380.672,-1266.13,-8448.161,-1642.445,-827.0428,0,0
13.09057,-10396.22,-2415.198,-1067.063,-8386.954,-1732.179,-572.7347,0,0
13.14035,-10337.2,-2497.394,-911.4886,-8346.363,-1844.678,-512.2181,0,0
13.17354,-10372.85,-2433.701,-930.231,-8360.521,-1849.525,-571.8945,0,0
13.22333,-10407.07,-2477.176,-921.0883,-8400.045,-1847.426,-709.7301,0,0
13.22333,-10437.26,-2505.282,-1098.822,-8436.323,-1884.203,-787.9686,0,0
13.27312,-10438.24,-2543.085,-1151.664,-8423.573,-1923.829,-846.465,0,0
13.30631,-10457.12,-2564.094,-1240.137,-8433.397,-1948.008,-880.9994,0,0
13.3561,-10396.85,-2599.809,-1213.67,-8382.766,-1919.384,-882.4345,0,0
13.3561,-10350.4,-2594.03,-1210.751,-8356.231,-1903.997,-873.7333,0,0
13.40589,-10359.11,-2568.577,-1232.298,-8363.097,-1874.241,-843.6473,0,0
13.43908,-10345.7,-2569.955,-1194.355,-8353.019,-1900.298,-837.7479,0,0
13.45567,-10334.86,-2641.723,-1166.222,-8344.938,-1962.597,-851.1144,0,0
13.48886,-10358.81,-2642.364,-1077.58,-8358.998,-2058.408,-764.6299,0,0
13.53865,-10367.47,-2646.338,-1173.251,-8365.718,-2103.15,-811.2147,0,0
13.57184,-10401.49,-2742.998,-1138.94,-8396.173,-2153.244,-913.3512,0,0
13.58844,-10416.96,-2798.081,-1138.157,-8399.038,-2156.405,-879.7576,0,0
13.62163,-10374.72,-2817.204,-1116.649,-8375.541,-2229.028,-953.4219,0,0
13.67142,-10390,-2759.797,-1364.384,-8391.679,-2157.834,-1034.21,0,0
13.70461,-10363.55,-2655.834,-1447.367,-8367.023,-1952.073,-1121.78,0,0
13.72121,-10352.51,-2588.109,-1498.702,-8349.816,-1849.228,-1093.808,0,0
13.7544,-10343.91,-2581.846,-1376.361,-8343.386,-1828.836,-996.5001,0,0
13.80419,-10359.09,-2542.349,-1214.86,-8359.555,-1875.311,-810.081,0,0
13.80419,-10364.9,-2525.174,-1164.352,-8364.055,-1893.057,-744.9321,0,0
13.85398,-10367.27,-2513.648,-1141.577,-8357.045,-1814.535,-766.8135,0,0
13.93696,-10392.97,-2507.238,-1041.369,-8385.568,-1759.468,-787.694,0,0
13.98675,-10444.64,-2446.866,-1063.485,-8424.929,-1791.245,-675.5193,0,0
14.01995,-10434.61,-2510.588,-957.2876,-8421.438,-1818.036,-622.0218,0,0
14.03654,-10408.46,-2517.044,-984.9283,-8401.261,-1842.398,-673.7244,0,0
14.06974,-10389.59,-2547.011,-989.7981,-8382.344,-1897.62,-666.5002,0,0
14.06974,-10352.96,-2531.699,-1029.237,-8358.815,-1870.156,-719.9363,0,0
14.11953,-10347.27,-2571.708,-996.3016,-8350.18,-1919.909,-698.7473,0,0
14.11953,-10341.92,-2624.095,-997.1498,-8346.252,-2002.166,-693.732,0,0
14.16932,-10344.62,-2620.198,-1041.362,-8344.034,-2040.623,-643.4026,0,0
14.20251,-10344.18,-2659.166,-997.6771,-8339.402,-1994.335,-673.0181,0,0
14.23522,-10345.21,-2608.943,-975.3102,-8344.752,-1908.283,-671.5332,0,0
14.25181,-10380.43,-2530.848,-1019.983,-8371.747,-1856.13,-639.8094,0,0
14.30158,-10384.44,-2492.303,-1043.651,-8374.767,-1792.077,-693.6297,0,0
14.35135,-10363.43,-2472.55,-1069.458,-8358.68,-1738.688,-686.5656,0,0
14.36794,-10395.46,-2457.757,-1029.761,-8383.164,-1698.336,-691.765,0,0
14.36794,-10420.76,-2409.805,-1023.897,-8402.382,-1711.941,-653.6187,0,0
14.36794,-10399.84,-2416.464,-1020.383,-8381.8,-1744.524,-567.5004,0,0
14.36794,-10297.6,-2419.765,-931.5832,-8316.981,-1779.649,-534.1644,0,0
14.36794,-10322.51,-2490.227,-1041.849,-8323.003,-1785.587,-721.131,0,0
14.36794,-10367.21,-2490.492,-1037.549,-8366.19,-1746.328,-749.8598,0,0
14.55044,-10404.7,-2467.306,-1100.368,-8385.932,-1787.28,-706.5361,1,0
14.55044,-10364.28,-2499.928,-1028.235,-8359.378,-1819.807,-681.2097,1,0
14.64998,-10371.67,-2511.53,-1023.299,-8365.045,-1829.762,-706.5741,1,0
14.69976,-10372.68,-2519.093,-988.4382,-8361.379,-1867.605,-699.9045,1,0
14.69976,-10337.75,-2549.019,-1139.626,-8339.146,-1927.686,-771.3627,1,0
14.74953,-10289.84,-2589.131,-1132.987,-8298.27,-1901.475,-816.5758,1,0
14.74953,-10337.52,-2514.437,-1120.607,-8343.83,-1834.72,-784.8016,1,0
14.7993,-10351.43,-2516.52,-1118.117,-8350.084,-1842.977,-769.0305,1,0
14.83248,-10362.88,-2512.867,-1102.478,-8358.845,-1825.506,-780.9613,1,0
14.84907,-10373.99,-2456.33,-1060.447,-8362.865,-1836.952,-724.0341,1,0
14.88225,-10377.01,-2508.439,-1061.215,-8365.11,-1867.72,-746.8189,1,0
14.93202,-10357.61,-2543.011,-1086.4,-8350.242,-1877.431,-756.8888,1,0
14.93202,-10354,-2536.994,-1087.369,-8351.936,-1866.042,-771.6638,1,0
14.9652,-10366.4,-2535.927,-1121.824,-8356.986,-1878.426,-777.909,1,0
15.01497,-10374.67,-2540.861,-1123.083,-8367.717,-1864.91,-745.1688,1,0
15.01497,-10369.54,-2504.949,-1056.921,-8363.734,-1812.771,-721.4324,1,0
15.06475,-10378.64,-2461.833,-1049.936,-8375.08,-1807.677,-687.4039,1,0
15.06475,-10366.2,-2471.451,-1042.91,-8361.079,-1786.705,-732.6313,1,0
15.11452,-10361.01,-2496.611,-1072.085,-8352.679,-1804.741,-776.8592,1,0
15.1477,-10367.89,-2512.741,-1072.62,-8353.524,-1860.911,-706.5543,1,0
15.19747,-10361.9,-2512.469,-1100.845,-8353.384,-1842.629,-778.3035,1,0
15.19747,-10326.36,-2490.692,-1132.357,-8317.408,-1832.908,-796.665,1,0
15.29701,-10326.69,-2512.102,-1086.336,-8326.692,-1854.56,-781.786,1,0
15.33019,-10380.46,-2496.501,-1112.516,-8367.87,-1878.604,-797.8054,1,0
15.33019,-10384.2,-2562.476,-1124.603,-8370.635,-1902.033,-814.894,1,0
15.37996,-10375.14,-2556.885,-1148.539,-8363.624,-1901.114,-834.3344,1,0
15.41314,-10367.5,-2532.694,-1183.062,-8353.314,-1871.914,-844.8916,1,0
15.42973,-10403.92,-2511.368,-1133.167,-8385.536,-1807.098,-821.4097,1,0
15.46292,-10436.18,-2438.61,-1100.621,-8410.011,-1749.748,-737.144,1,0
15.51269,-10405.9,-2472.663,-1028.472,-8386.639,-1750.382,-722.6249,1,0
15.51269,-10383.45,-2426.917,-967.8123,-8364.955,-1740.945,-670.7985,1,0
15.56246,-10383.46,-2382.415,-1042.768,-8360.523,-1706.789,-698.054,1,0
15.59564,-10350.16,-2394.455,-1053.911,-8343.971,-1705.4,-754.703,1,0
15.61223,-10368.62,-2421.534,-1095.13,-8349.313,-1703.782,-805.6073,1,0
15.64541,-10408.21,-2368.57,-1118.436,-8388.442,-1701.896,-758.9922,1,0
15.69518,-10430.28,-2346.505,-1066.04,-8414.024,-1663.302,-748.8275,1,0
15.69518,-10426.38,-2326.339,-1105.958,-8410.821,-1657.542,-727.2924,1,0
15.74495,-10412.65,-2300.298,-1009.727,-8391.307,-1637.052,-689.8594,1,0
15.77814,-10415.34,-2310.664,-1000.22,-8402.134,-1600.641,-716.4182,1,0
15.77814,-10425.74,-2305.517,-994.2139,-8396.665,-1638.246,-692.1255,1,0
15.82791,-10414.79,-2332.531,-1030.186,-8392.634,-1684.48,-733.1516,1,0
15.96063,-10418.28,-2277.311,-1061.68,-8381.945,-1602.655,-843.9539,1,0
15.96063,-10376.82,-2308.226,-1053.204,-8359.122,-1622.03,-749.7195,1,0
16.01078,-10412.63,-2280.199,-1005.43,-8386.561,-1654.688,-638.7619,1,0
16.01078,-10377.1,-2353.131,-927.496,-8372.684,-1683.768,-640.2837,1,0
16.06057,-10365.43,-2297.878,-951.3267,-8363.849,-1636.632,-625.7208,1,0
16.06057,-10406.42,-2275.339,-936.1799,-8377.51,-1549.326,-619.0012,1,0
16.09376,-10391.37,-2216.733,-919.2869,-8374.862,-1485.39,-550.5759,1,0
16.09376,-10413.73,-2193.976,-827.6039,-8396.379,-1450.697,-565.0668,1,0
16.14354,-10385.81,-2196.99,-908.0818,-8370.552,-1475.608,-583.6751,1,0
16.19332,-10391.56,-2220.013,-924.9436,-8370.554,-1471.062,-654.5278,1,0
16.19332,-10398.24,-2202.647,-898.4741,-8366.816,-1479.62,-666.8668,1,0
16.22651,-10348.87,-2272.824,-848.2631,-8346.875,-1623.095,-544.5001,1,0
16.27629,-10361.47,-2330.545,-791.6735,-8343.366,-1746.573,-524.2549,1,0
16.27629,-10346.73,-2419.066,-886.5085,-8332.247,-1813.407,-637.7064,1,0
16.32607,-10347.26,-2430.677,-969.0565,-8337.255,-1781.643,-698.882,1,0
16.35926,-10341.28,-2466.629,-918.179,-8332.824,-1817.883,-651.795,1,0
16.37586,-10400.08,-2483.656,-943.0726,-8377.856,-1831.278,-662.2289,1,0
16.40905,-10379.07,-2512.006,-960.9681,-8366.158,-1793.506,-671.9512,1,0
16.45882,-10331.32,-2500.175,-869.6974,-8325.27,-1791.077,-657.5591,1,0
16.45882,-10363.35,-2491.136,-870.9949,-8349.899,-1831.31,-611.592,1,0
16.50861,-10385.58,-2546.871,-889.1965,-8371.333,-1895.49,-652.5612,1,0
16.5418,-10406.35,-2519.915,-909.5496,-8387.133,-1903.545,-605.0101,1,0
16.59158,-10381.75,-2542.056,-887.6634,-8363.789,-1850.046,-612.5139,1,0
16.64136,-10409.28,-2465.146,-866.9617,-8380.358,-1795.302,-587.4276,1,0
16.70774,-10396.38,-2450.782,-847.9841,-8379.259,-1759.834,-587.2842,1,0
16.70774,-10386.6,-2418.077,-840.3685,-8371.731,-1746.77,-573.1205,1,0
16.70774,-10391.89,-2421.465,-855.2755,-8366.885,-1730.061,-624.0838,1,0
16.70774,-10440.23,-2393.28,-939.8065,-8412.622,-1748.539,-622.2233,1,0
16.8239,-10450.64,-2382.074,-907.2571,-8407.054,-1723.486,-612.7867,1,0
16.85709,-10402.95,-2385.243,-818.0546,-8370.444,-1740.769,-517.556,1,0
16.85709,-10422.55,-2350.967,-819.7868,-8394.266,-1726.08,-522.8818,1,0
16.90688,-10407.46,-2387.58,-762.1917,-8378.214,-1732.637,-547.1152,1,0
16.90688,-10392.93,-2388.272,-836.5338,-8371.537,-1778.406,-556.6007,1,0
16.95666,-10413.33,-2456.533,-821.8048,-8382.706,-1816.645,-576.8082,1,0
17.00644,-10379.74,-2451.209,-859.5652,-8361.455,-1834.215,-565.0437,1,0
17.00644,-10406.75,-2425.627,-912.6547,-8377.729,-1779.267,-634.428,1,0
17.02303,-10445.78,-2381.292,-914.5928,-8407.495,-1679.744,-590.8241,1,0
17.02303,-10429.62,-2358.558,-853.4045,-8403.854,-1678.178,-498.5978,1,0
17.08941,-10400.13,-2314.472,-835.116,-8381.236,-1667.813,-519.2271,1,0
17.1226,-10412.74,-2296.972,-807.9329,-8386.448,-1601.111,-496.4751,1,0
17.17238,-10379.04,-2295.202,-774.2108,-8365.133,-1616.906,-556.3339,1,0
17.27195,-10376.12,-2322.165,-716.1261,-8363,-1686.948,-547.0959,1,0
17.30514,-10393.42,-2337.211,-789.1589,-8367.444,-1768.957,-556.6406,1,0
17.32173,-10410.16,-2401.052,-878.5653,-8380.265,-1801.568,-622.2306,1,0
17.35492,-10448.75,-2401.376,-905.2745,-8409.694,-1741.458,-672.848,1,0
17.35492,-10438.98,-2388.482,-899.3177,-8406.492,-1708.809,-649.0886,1,0
17.4047,-10430.86,-2344.665,-929.58,-8395.734,-1715.535,-606.8322,1,0
17.4047,-10419.22,-2339.941,-901.4307,-8386.782,-1678.231,-623.9059,1,0
17.45449,-10407.92,-2323.748,-944.2367,-8373.703,-1670.476,-649.7657,1,0
17.48768,-10435.61,-2293.657,-934.9183,-8394.877,-1631.374,-598.5959,1,0
17.48768,-10398.57,-2262.965,-891.1671,-8370.962,-1613.821,-595.2557,1,0
17.53746,-10388.08,-2255.492,-847.6024,-8363.024,-1563.378,-635.0997,1,0
17.53746,-10423.1,-2220.709,-882.5287,-8394.284,-1537.317,-672.8253,1,0
17.58724,-10481.32,-2237.914,-916.7742,-8438.668,-1552.126,-705.4426,1,0
17.62043,-10469.59,-2200.973,-965.8063,-8420.584,-1490.3,-767.4984,1,0
17.67226,-10472.17,-2220.744,-972.9032,-8413.516,-1441.469,-774.9002,1,0
17.67226,-10392.38,-2197.293,-853.9833,-8365.755,-1489.814,-701.0896,1,0
17.72204,-10419.11,-2229.284,-887.1837,-8390.732,-1593.926,-680.7204,1,0
17.75523,-10433.82,-2294.739,-839.4207,-8388.684,-1631.28,-665.5496,1,0
17.77182,-10452.18,-2305.503,-852.2838,-8411.548,-1661.823,-643.3434,1,0
17.80501,-10477.33,-2330.908,-764.5009,-8439.51,-1653.334,-582.8199,1,0
17.8548,-10448.67,-2290.962,-723.037,-8408.565,-1662.246,-495.0942,1,0
17.8548,-10439.33,-2313.174,-692.016,-8396.943,-1699.858,-514.4502,1,0
17.90458,-10457.01,-2319.57,-664.2805,-8410.442,-1689.551,-478.9359,1,0
17.93777,-10429.61,-2360.211,-631.1651,-8393.887,-1705.42,-419.7234,1,0
17.98755,-10444.66,-2346.566,-594.442,-8400.979,-1700.798,-405.7987,1,0
17.98755,-10413.52,-2338.356,-620.1129,-8377.187,-1687.104,-433.7055,1,0
18.03734,-10398.73,-2406.36,-612.234,-8357.141,-1695.1,-482.3237,1,0
18.07052,-10373.59,-2363.423,-663.2484,-8360.275,-1750.096,-531.9777,1,0
18.12031,-10407.22,-2404.108,-721.4169,-8377.276,-1706.075,-657.1683,1,0
18.12031,-10435.81,-2395.611,-717.3301,-8390.308,-1681.887,-633.0487,1,0
18.17009,-10447.97,-2406.837,-698.7123,-8412.853,-1688.64,-639.1905,1,0
18.21987,-10439.65,-2399.634,-714.3869,-8397.529,-1745.279,-478.5143,1,0
18.25306,-10421.22,-2395.082,-599.3643,-8387.856,-1768.675,-366.5812,1,0
18.26965,-10437.11,-2419.343,-547.6402,-8400.005,-1762.263,-373.5029,1,0
18.30284,-10408.7,-2430.743,-571.432,-8369.421,-1743.811,-403.4659,1,0
18.35262,-10405.32,-2410.821,-594.9339,-8366.937,-1728.64,-382.3296,1,0
18.35262,-10413.49,-2420.106,-602.5101,-8377.7,-1693.492,-429.0162,1,0
18.40241,-10377.47,-2395.341,-572.1041,-8354.678,-1690.864,-436.0146,1,0
18.4356,-10363.34,-2433.21,-519.0812,-8330.769,-1770.453,-360.6819,1,0
18.4356,-10412.86,-2452.89,-490.7963,-8377.66,-1821.221,-310.5726,1,0
18.48538,-10419.96,-2461.443,-462.0024,-8383.076,-1817.117,-315.8535,1,0
18.53517,-10394.16,-2500.024,-494.4283,-8358.927,-1839.013,-352.0547,1,0
18.56836,-10434.47,-2505.24,-505.9843,-8398.642,-1781.897,-383.1835,1,0
18.58495,-10454.8,-2460.102,-496.8902,-8414.061,-1812.246,-266.857,1,0
18.61814,-10415.47,-2466.488,-470.4253,-8388.304,-1773.14,-284.8582,1,0
18.66792,-10391.31,-2441.952,-434.8811,-8356.558,-1751.794,-206.7081,1,0
18.66792,-10388.17,-2442.214,-305.9825,-8354.278,-1768.047,-127.5645,1,0
18.7177,-10402.06,-2471.226,-322.9513,-8373.854,-1808.425,-167.0638,1,0
18.75089,-10392.71,-2468.704,-358.5028,-8366.743,-1813.23,-214.9686,1,0
18.75089,-10411.7,-2447.823,-397.9864,-8368.008,-1750.031,-255.6322,1,0
18.80067,-10390.52,-2448.205,-391.7957,-8360.718,-1756.72,-230.4552,1,0
18.85045,-10380.59,-2462.198,-418.3135,-8344.342,-1818.922,-218.3712,1,0
18.88364,-10392.55,-2483.067,-359.5139,-8362.457,-1850.2,-154.1121,1,0
18.93342,-10380.98,-2465.754,-366.257,-8344.81,-1832.849,-186.3715,1,0
18.98321,-10367.58,-2452.304,-402.4398,-8356.835,-1788.363,-231.8199,1,0
18.98321,-10420.09,-2435.956,-462.89,-8392.578,-1730.73,-330.4681,1,0
19.0164,-10410.79,-2395.315,-462.8763,-8376.505,-1728.113,-303.3881,1,0
19.03299,-10406.19,-2419.034,-450.8742,-8377.386,-1799.069,-273.3329,1,0
19.06618,-10422.34,-2437.911,-464.4016,-8380.823,-1825.66,-293.8896,1,0
19.11596,-10460.35,-2465.917,-505.5268,-8409.77,-1799.575,-315.2219,1,0
19.11596,-10466.79,-2487.942,-496.1541,-8418.907,-1777.245,-312.8381,1,0
19.16574,-10495.71,-2406.507,-522.956,-8440.767,-1744.361,-303.7736,1,0
19.21553,-10427.93,-2419.179,-444.9203,-8379.863,-1781.905,-247.9002,1,0
19.24871,-10375.77,-2445.759,-407.8108,-8335.623,-1820.795,-237.1477,1,0
19.2985,-10397.51,-2463.241,-402.0211,-8361.302,-1808.834,-257.5922,1,0
19.2985,-10442.75,-2440.682,-499.8206,-8395.922,-1784.311,-326.3098,1,0
19.34828,-10469.16,-2480.63,-474.6577,-8415.988,-1752.225,-355.9027,1,0
19.38147,-10422.29,-2450.521,-469.4,-8375.599,-1788.231,-245.3306,1,0
19.43125,-10375.89,-2443.729,-419.1541,-8340.2,-1809.891,-254.408,1,0
19.43125,-10393.31,-2444.75,-453.9593,-8358.13,-1788.741,-255.3696,1,0
19.48103,-10381.66,-2435.203,-449.2185,-8349.344,-1748.772,-281.4431,1,0
19.51422,-10377.29,-2430.194,-449.2462,-8341.714,-1751.152,-261.8044,1,0
19.564,-10403.73,-2395.568,-448.6605,-8357.611,-1737.841,-265.8358,1,0
19.564,-10392.68,-2447.619,-431.8432,-8349.216,-1786.907,-138.3753,1,0
19.61379,-10460.56,-2415.348,-450.9397,-8405.536,-1918.428,5.388978,1,0
19.66357,-10474.67,-2468.134,-296.0712,-8411.673,-1841.856,50.44596,1,0
19.66357,-10415.99,-2401.559,-245.9714,-8371.088,-1715.805,-139.0956,1,0
19.69676,-10391.58,-2368.467,-233.2556,-8356.902,-1669.761,-97.24666,1,0
19.74654,-10411.84,-2281.577,-264.9924,-8376.896,-1741.49,13.35709,1,0
19.74654,-10417.18,-2269.335,-342.8015,-8376.541,-1698.191,-157.8096,1,0
19.79633,-10414.68,-2350.781,-437.4005,-8370.191,-1679.96,-310.1477,1,0
19.82952,-10403.18,-2323.831,-511.4592,-8370.287,-1689.031,-331.5972,1,0
19.8793,-10408.83,-2320.008,-539.4154,-8370.199,-1697.761,-391.3699,1,0
19.92908,-10426.5,-2329.172,-608.7676,-8392.572,-1711.928,-438.5792,1,0
19.92908,-10465.71,-2332.446,-549.7822,-8413.569,-1708.229,-391.531,1,0
19.97887,-10460.54,-2303.189,-587.3599,-8404.991,-1711.529,-399.1342,1,0
20.01205,-10438.31,-2331.398,-591.4181,-8387.882,-1651.276,-448.9713,1,0
20.01205,-10450.64,-2320.974,-570.1522,-8397.254,-1643.288,-418.7724,1,0
20.06184,-10453.3,-2270.82,-571.9927,-8403.628,-1663.978,-309.1867,1,0
20.11162,-10418.2,-2292.51,-504.4969,-8376.739,-1626.266,-354.9603,1,0
20.11162,-10361.1,-2320.448,-540.5144,-8324.345,-1644.567,-389.7997,1,0
20.1946,-10376.67,-2316.911,-602.353,-8349.808,-1689.392,-432.0227,1,0
20.24438,-10450.63,-2311.411,-593.1989,-8384.262,-1661.154,-428.9987,1,0
20.24438,-10411.55,-2359.712,-505.1684,-8376.502,-1777.355,-291.0667,1,0
20.27757,-10387.91,-2366.442,-445.1304,-8349.612,-1830.983,-275.2964,1,0
20.27757,-10411.76,-2388.291,-513.1284,-8363.521,-1764.492,-369.5912,1,0
20.32735,-10449.04,-2365.952,-579.6915,-8405.298,-1733.929,-411.998,1,0
20.37713,-10478.66,-2356.868,-552.0024,-8418.903,-1713.9,-380.5727,1,0
20.37713,-10464.47,-2331.555,-573.1953,-8407.852,-1755.779,-350.6199,1,0
20.42691,-10475.8,-2346.957,-543.4902,-8425.219,-1715.977,-367.433,1,0
20.50989,-10452.34,-2375.211,-598.3771,-8402.689,-1745.315,-389.033,1,0
20.50989,-10396.24,-2407.528,-565.924,-8350.938,-1739.407,-365.1337,1,0
20.55967,-10368.98,-2417.242,-441.1827,-8334.737,-1805.935,-233.8254,1,0
20.55967,-10376.78,-2419.113,-428.6666,-8332.076,-1795.978,-236.9384,1,0
20.64264,-10337.3,-2407.895,-435.9564,-8311.015,-1743.124,-281.4476,1,0
20.64264,-10383.55,-2339.638,-489.171,-8355.499,-1704.23,-303.7963,1,0
20.69242,-10407.73,-2388.676,-469.822,-8369.614,-1733.785,-328.9988,1,0
20.69242,-10418.54,-2384.686,-519.0996,-8373.423,-1734.308,-343.692,1,0
20.74221,-10387.07,-2345.183,-499.248,-8349.369,-1690.009,-370.5566,1,0
20.82518,-10425.25,-2356.858,-521.9401,-8378.597,-1755.306,-340.1537,1,0
20.82518,-10430.94,-2423.446,-458.7174,-8378.441,-1813.311,-300.4213,1,0
20.87496,-10396.4,-2455.364,-528.1776,-8352.006,-1862.86,-325.3632,1,0
20.87496,-10398.39,-2456.28,-539.4669,-8344.729,-1817.423,-376.3031,1,0
20.90815,-10357.44,-2425.61,-496.2993,-8322.41,-1773.225,-353.9699,1,0
20.92475,-10393.74,-2416.037,-496.9003,-8354.751,-1772.468,-322.834,1,0
20.95794,-10407.46,-2369.969,-503.022,-8360.82,-1728.377,-324.2322,1,0
21.00772,-10407.66,-2402.825,-486.3968,-8360.958,-1740.578,-324.032,1,0
21.00772,-10384.48,-2355.698,-468.5822,-8352.117,-1688.016,-310.7708,1,0
21.0575,-10405.47,-2374.421,-491.7905,-8359.328,-1734.675,-309.4976,1,0
21.0575,-10417.63,-2381.421,-490.8809,-8368.598,-1745.352,-368.1325,1,0
21.14047,-10393.65,-2427.288,-519.0813,-8354.668,-1778.172,-422.5411,1,0
21.19026,-10406.28,-2401.302,-520.5977,-8355.479,-1848.751,-330.6715,1,0
21.19026,-10417.98,-2441.8,-448.0183,-8364.41,-1794.959,-306.2702,1,0
21.22345,-10439.17,-2465.787,-488.2513,-8384.973,-1846.604,-323.3252,1,0
21.24004,-10423.76,-2464,-437.1079,-8373.077,-1831.9,-295.689,1,0
21.27323,-10465.55,-2460.23,-431.6817,-8409.35,-1843.727,-225.0146,1,0
21.32301,-10423.29,-2433.579,-375.7319,-8376.877,-1741.163,-239.4419,1,0
21.32301,-10408.36,-2400.541,-457.0016,-8361.014,-1770.297,-278.8966,1,0
21.3562,-10418.41,-2428.459,-424.1753,-8359.857,-1783.089,-261.1426,1,0
21.45576,-10385.41,-2428.254,-417.4403,-8352.408,-1802.845,-240.9699,1,0
21.45576,-10394.22,-2439.985,-372.3358,-8350.363,-1777.389,-233.0894,1,0
21.50555,-10402.7,-2412.708,-346.7061,-8356.912,-1782.019,-175.9092,1,0
21.50555,-10409.96,-2415.167,-393.1567,-8358.06,-1776.163,-209.9002,1,0
21.53874,-10415.29,-2385.233,-413.9061,-8370.996,-1723.983,-253.404,1,0
21.58852,-10424.05,-2439.659,-376.4007,-8373.227,-1746.069,-256.4267,1,0
21.58852,-10454.51,-2426.678,-371.112,-8405.288,-1770.243,-186.6182,1,0
21.62171,-10417.94,-2409.727,-354.5302,-8363.897,-1824.592,-158.747,1,0
21.6383,-10391.79,-2441.27,-367.9135,-8348.38,-1783.767,-216.6824,1,0
21.68809,-10361.18,-2402.191,-374.7823,-8320.682,-1798.189,-247.8455,0,0
21.72128,-10404.45,-2424.308,-372.1214,-8358.356,-1784.603,-274.1248,0,0
21.72128,-10417.81,-2378.435,-452.0663,-8372.997,-1795.541,-286.9603,0,0
21.82084,-10425.64,-2421.211,-497.1358,-8370.067,-1741.839,-356.8926,0,0
21.82084,-10439.96,-2424.487,-463.8207,-8372.082,-1739.711,-324.3879,0,0
21.8539,-10383.81,-2387.48,-394.3677,-8346.864,-1738.395,-240.1164,0,0
21.8539,-10375.69,-2414.318,-347.6974,-8336.336,-1813.86,-161.6884,0,0
21.90382,-10414.3,-2438.762,-387.7559,-8370.369,-1773.982,-269.6436,0,0
21.9536,-10408.19,-2438.085,-349.6834,-8352.371,-1778.953,-217.3347,0,0
21.9536,-10397.75,-2460.666,-432.8224,-8353.282,-1814.413,-296.5183,0,0
22.00338,-10421.75,-2422.27,-440.1045,-8362.775,-1731.477,-310.4984,0,0
22.03657,-10387.98,-2409.841,-410.7235,-8350.257,-1798.539,-214.763,0,0
22.03657,-10354.09,-2427.928,-408.43,-8311.158,-1805.672,-260.4758,0,0
22.08635,-10370.91,-2456.572,-444.5354,-8324.213,-1796.44,-293.5706,0,0
22.13614,-10407.63,-2422.8,-446.4485,-8365.662,-1783.569,-276.3207,0,0
22.16932,-10432.66,-2425.135,-448.6404,-8375.85,-1775.938,-294.7848,0,0
22.16932,-10415.96,-2440.355,-409.4574,-8367.403,-1811.389,-252.5518,0,0
22.21911,-10424.94,-2449.671,-431.4602,-8374.199,-1802.338,-263.5856,0,0
22.26889,-10387.95,-2465.912,-382.2789,-8345.882,-1789.446,-267.5647,0,0
22.26889,-10420.62,-2434.904,-433.0409,-8362.021,-1812.221,-285.616,0,0
22.31868,-10424.07,-2467.789,-383.6319,-8373.466,-1808.461,-257.2365,0,0
22.35186,-10415.03,-2421.584,-432.9031,-8366.488,-1818.774,-263.0928,0,0
22.35186,-10400.79,-2467.118,-437.3535,-8351.156,-1821.931,-273.3819,0,0
22.40165,-10385.76,-2451.675,-395.316,-8353.016,-1823.586,-216.8611,0,0
22.48462,-10433.78,-2462.822,-376.5811,-8363.139,-1811.515,-194.1364,0,0
22.48462,-10402.68,-2432.455,-369.3997,-8357.055,-1762.506,-227.6625,0,0
22.5344,-10421.3,-2429.387,-401.8754,-8371.285,-1784.092,-245.4004,0,0
22.58418,-10408.87,-2452.622,-406.6207,-8352.879,-1808.531,-245.4468,0,0
22.58418,-10384.83,-2435.827,-407.7764,-8334.54,-1795.38,-249.3871,0,0
22.61737,-10348.74,-2446.823,-394.1756,-8315.965,-1789.112,-259.4989,0,0
22.71657,-10374.63,-2473.048,-364.2584,-8335.937,-1833.784,-217.2813,0,0
22.71657,-10401.09,-2460.567,-338.7519,-8351.798,-1878.112,-189.6659,0,0
22.79941,-10439.81,-2467.701,-381.0284,-8372.481,-1822.698,-245.7386,0,0
22.79941,-10424.48,-2431.838,-388.5319,-8369.506,-1774.476,-248.7142,0,0
22.84918,-10403.28,-2411.655,-353.1375,-8353.239,-1785.774,-197.8723,0,0
22.84918,-10380.87,-2480.256,-357.6062,-8336.134,-1827.182,-196.2041,0,0
22.89894,-10366.76,-2455.326,-313.2911,-8325.456,-1774.788,-213.2169,0,0
22.93212,-10367.59,-2439.638,-389.6702,-8321.794,-1812.719,-250.9433,0,0
22.93212,-10391.51,-2460.923,-430.6672,-8340.179,-1795.452,-350.0186,0,0
22.98189,-10415.58,-2417.781,-374.3049,-8363.005,-1775.805,-250.9559,0,0
22.98189,-10391.98,-2450.508,-363.8232,-8349.34,-1900.616,-165.4176,0,0
23.03165,-10413.65,-2482.681,-376.1085,-8361.456,-1881.734,-255.0564,0,0
23.11459,-10404.02,-2497.883,-409.264,-8354.042,-1855.16,-251.8096,0,0
23.11459,-10408.29,-2452.97,-423.301,-8352.847,-1826.786,-264.3742,0,0
23.16436,-10390.73,-2461.15,-324.2115,-8334.983,-1817.794,-211.0331,0,0
23.16436,-10408.13,-2456.479,-406.5544,-8352.749,-1845.245,-230.3361,0,0
23.21412,-10411.73,-2470.796,-382.5265,-8355.469,-1810.147,-247.689,0,0
23.21412,-10384.97,-2439.492,-400.2264,-8339.433,-1798.993,-265.6135,0,0
23.2473,-10403.77,-2454.313,-392.8042,-8358.271,-1817.877,-239.0835,0,0
23.29707,-10429.24,-2454.38,-375.8053,-8382.114,-1825.137,-236.6242,0,0
23.29707,-10427.41,-2417.834,-419.3788,-8367.29,-1813.572,-258.0103,0,0
23.34683,-10420.4,-2434.559,-430.0992,-8366.289,-1777.137,-273.8386,0,0
23.3966,-10414.04,-2392.399,-407.7118,-8365.804,-1720.716,-273.488,0,0
23.3966,-10442.43,-2407.156,-358.6038,-8378.578,-1785.765,-193.2616,0,0
23.42978,-10405.55,-2406.132,-290.743,-8354.74,-1785.934,-139.7264,0,0
23.47954,-10376.25,-2473.953,-298.9659,-8332.395,-1865.23,-177.4665,0,0
23.47954,-10402.48,-2466.855,-384.6734,-8352.553,-1822.199,-244.2913,0,0
23.52931,-10395.78,-2447.107,-416.9354,-8347.455,-1838.885,-245.8618,0,0
23.56249,-10401.89,-2439.864,-423.536,-8343.3,-1811.403,-295.0793,0,0
23.57907,-10395.42,-2449.85,-428.8378,-8347.257,-1840.361,-282.5431,0,0
23.61225,-10360.82,-2406.582,-447.8301,-8316.45,-1839.106,-282.7159,0,0
23.66202,-10347.39,-2468.793,-499.7976,-8301.938,-1824.305,-408.5738,0,0
23.66202,-10448.39,-2466.243,-483.6559,-8383.683,-1817.021,-361.3229,0,0
23.74496,-10517.42,-2432.922,-403.8653,-8436.163,-1827.268,-224.7027,0,0
23.79473,-10478.47,-2430.805,-373.6199,-8410.421,-1839.229,-199.5334,0,0
23.79473,-10424.15,-2448.809,-397.8058,-8359.833,-1831.631,-253.6842,0,0
23.84449,-10454.09,-2416.366,-422.6949,-8387.121,-1799.354,-266.0764,0,0
23.87767,-10439.4,-2415.031,-431.029,-8375.783,-1769.088,-288.734,0,0
23.89426,-10404.08,-2396.466,-483.7133,-8353.191,-1757.578,-331.3337,0,0
23.92743,-10418.98,-2414.468,-426.2783,-8360.216,-1755.194,-268.9102,0,0
23.9772,-10452.08,-2391.763,-312.0033,-8385.497,-1775.133,-126.2827,0,0
23.9772,-10422.58,-2387.245,-337.4253,-8367.302,-1836.359,-110.5152,0,0
24.06014,-10397.58,-2431.911,-240.5548,-8343.79,-1831.959,-96.59216,0,0
24.10991,-10424,-2404.083,-281.5525,-8364.074,-1789.032,-114.9765,0,0
24.10991,-10402.97,-2463.247,-313.8423,-8352.452,-1799.656,-212.6461,0,0
24.15967,-10417.41,-2424.772,-335.5837,-8367.972,-1829.755,-136.5866,0,0
24.19285,-10418.21,-2443.33,-361.787,-8359.717,-1803.985,-189.2262,0,0
24.19285,-10384.21,-2416.919,-399.9152,-8329.344,-1775.763,-199.8101,0,0
24.24261,-10387.7,-2420.888,-380.2472,-8327.729,-1763.652,-211.0349,0,0
24.24261,-10383.28,-2392.889,-333.4005,-8333.35,-1743.489,-200.4302,0,0
24.29238,-10393.24,-2406.459,-354.1681,-8332.206,-1775.368,-198.0836,0,0
24.32556,-10393.57,-2415.437,-387.8557,-8336.965,-1804.727,-199.1819,0,0
24.34215,-10415,-2444.543,-359.8463,-8357.821,-1822.771,-126.521,0,0
24.37532,-10413.21,-2446.047,-261.1988,-8360.847,-1834.323,-40.04874,0,0
24.42509,-10382.25,-2419.299,-301.9356,-8328.321,-1817.094,-65.06268,0,0
24.47485,-10403.99,-2412.727,-281.5909,-8340.589,-1800.42,-103.9006,0,0
24.47485,-10386.82,-2414.391,-371.4456,-8327.504,-1837.168,-156.704,0,0
24.50803,-10391.29,-2452.435,-353.0994,-8331.003,-1844.545,-168.9501,0,0
24.55779,-10387.38,-2457.923,-354.6767,-8336.943,-1915.329,-146.5709,0,0
24.55779,-10382.01,-2442.007,-457.1937,-8324.028,-1844.992,-274.6845,0,0
24.60756,-10356.7,-2461.18,-446.1992,-8313.652,-1827.143,-332.2641,0,0
24.64074,-10379.94,-2405.34,-550.636,-8322.675,-1794.971,-364.9066,0,0
24.65732,-10394.67,-2390.809,-533.8117,-8333.984,-1777.912,-324.4164,0,0
24.6905,-10378.96,-2376.832,-514.3885,-8326.425,-1750.53,-305.6946,0,0
24.74026,-10392.05,-2347.27,-525.0805,-8336.475,-1734.31,-333.6464,0,0
24.79003,-10403.07,-2305.284,-508.3239,-8349.308,-1746.344,-324.8208,0,0
24.79003,-10466.01,-2355.859,-586.4855,-8397.297,-1731.571,-393.816,0,0
24.83979,-10433.76,-2334.83,-526.7469,-8367.959,-1736.253,-366.6843,0,0
24.87297,-10426.68,-2360.833,-518.8585,-8371.286,-1766.042,-292.4249,0,0
24.92274,-10426.9,-2362.698,-455.1822,-8366.92,-1785.566,-297.9421,0,0
24.92274,-10433.44,-2330.055,-538.0397,-8362.965,-1781.183,-322.9495,0,0
24.9725,-10407.06,-2350.084,-502.6411,-8342.751,-1739.535,-321.1591,0,0
25.00568,-10390.5,-2320.573,-504.4416,-8339.008,-1713.838,-271.154,0,0
25.05544,-10387.71,-2321.109,-507.121,-8332.517,-1692.625,-351.2799,0,0
25.10521,-10401.66,-2294.08,-622.5407,-8343.249,-1671.992,-407.3299,0,0
25.10521,-10405.47,-2293.052,-618.3464,-8350.607,-1665.187,-417.7018,0,0
25.13839,-10450.98,-2328.071,-560.392,-8389.771,-1729.358,-372.6812,0,0
25.18815,-10470.8,-2357.345,-512.3856,-8395.844,-1792.767,-307.5606,0,0
25.18815,-10447.51,-2376.95,-443.738,-8386.709,-1809.533,-250.4974,0,0
25.23792,-10460.32,-2380.711,-436.9347,-8383.062,-1787.554,-290.761,0,0
25.28768,-10460.71,-2330.501,-534.4484,-8392.084,-1748.813,-331.8878,0,0
25.32086,-10465.25,-2296.48,-552.5214,-8390.979,-1704.357,-337.2576,0,0
25.33745,-10413.3,-2281.521,-620.7218,-8351.192,-1695.389,-348.1728,0,0
25.42039,-10384.03,-2314.811,-544.5613,-8328.929,-1691.703,-353.9837,0,0
25.42039,-10376.04,-2309.953,-495.7031,-8323.014,-1670.718,-376.6623,0,0
25.47015,-10432.65,-2309.615,-465.3697,-8370.846,-1756.247,-241.2836,0,0
25.50332,-10426.01,-2355.159,-489.4422,-8365.726,-1812.054,-240.8641,0,0
25.50332,-10406.56,-2383.25,-507.0904,-8341.99,-1776.496,-326.5736,0,0
25.55309,-10403.97,-2362.478,-525.0571,-8344.521,-1750.212,-316.7234,0,0
25.58627,-10396.01,-2271.391,-491.9959,-8338.508,-1744.324,-245.1991,0,0
25.60286,-10416.98,-2333.514,-514.9855,-8354.604,-1740.938,-304.7646,0,0
25.63603,-10433.73,-2305.456,-525.1381,-8362.961,-1679.099,-326.6325,0,0
25.73557,-10447.83,-2312.611,-515.2143,-8369.232,-1736.838,-372.7099,0,0
25.73557,-10429.27,-2353.542,-539.2583,-8359.403,-1800.25,-305.058,0,0
25.78533,-10417.29,-2345.397,-545.0283,-8350.237,-1783.595,-321.892,0,0
25.78533,-10401.43,-2377.941,-564.4807,-8338.162,-1760.685,-418.0845,0,0
25.80192,-10390.06,-2381.32,-480.4792,-8333.997,-1810.225,-268.0585,0,0
25.86827,-10402.5,-2385.779,-489.9143,-8339.167,-1819.496,-261.6351,0,0
25.86827,-10396.55,-2317.302,-541.6978,-8343.547,-1719.358,-383.0555,0,0
25.91804,-10450.92,-2288.435,-615.6133,-8380.674,-1665.083,-459.2068,0,0
25.95121,-10440.42,-2268.273,-630.1722,-8368.076,-1687.964,-355.4239,0,0
25.95121,-10421.82,-2290.525,-572.5897,-8353.799,-1644.027,-412.5769,0,0
26.05074,-10426.39,-2257.205,-589.5146,-8357.289,-1692.29,-322.7884,0,0
26.08392,-10443.45,-2297.731,-516.2855,-8374.719,-1682.193,-354.0862,0,0
26.08392,-10423.46,-2289.046,-545.8369,-8359.369,-1687.064,-306.3428,0,0
26.13368,-10431.64,-2296.245,-497.1839,-8370.04,-1665.278,-344.6205,0,0
26.13368,-10422.04,-2286.375,-497.7882,-8349.37,-1683.934,-307.7862,0,0
26.18345,-10380.76,-2300.785,-566.1371,-8322.316,-1716.654,-404.4346,0,0
26.18345,-10382.38,-2336.918,-590.0612,-8323.726,-1793.533,-369.3063,0,0
26.21658,-10355.92,-2403.277,-590.6853,-8299.241,-1863.602,-412.8233,0,0
26.26639,-10327.46,-2427.576,-658.0886,-8286.618,-1953.086,-421.932,0,0
26.28298,-10365.75,-2476.504,-693.4618,-8311.719,-1918.265,-505.3264,0,0
26.31616,-10399.51,-2467.972,-671.3776,-8333.191,-1855.977,-503.653,0,0
26.36592,-10387.15,-2441.976,-650.7484,-8337.048,-1835.7,-489.9123,0,0
26.36592,-10390.12,-2427.255,-639.8466,-8334.9,-1858.243,-475.4154,0,0
26.3991,-10375.19,-2416.531,-698.2576,-8310.229,-1807.685,-506.4432,0,0
26.44886,-10365.27,-2403.184,-685.0031,-8307.184,-1771.91,-498.6658,0,0
26.49863,-10376.36,-2337.03,-682.0141,-8311.33,-1683.483,-488.5691,0,0
26.49863,-10396.22,-2286.309,-635.2219,-8322.134,-1672.533,-425.7154,0,0
26.53181,-10376.8,-2279.502,-612.5721,-8316.165,-1694.922,-379.0671,0,0
26.58158,-10353.45,-2310.319,-585.8755,-8307.257,-1669.231,-421.1537,0,0
26.58158,-10387.74,-2287.656,-560.5971,-8329.115,-1709.573,-360.9656,0,0
26.63134,-10442.12,-2334.305,-638.8762,-8361.745,-1684.765,-440.6557,0,0
26.68111,-10407.07,-2334.321,-540.2648,-8330.352,-1724.272,-350.0515,0,0
26.68111,-10410.68,-2363.527,-461.2614,-8337.505,-1780.969,-251.0195,0,0
26.73087,-10420.53,-2390.18,-413.8458,-8344.964,-1872.909,-234.8903,0,0
26.76405,-10429.47,-2410.322,-549.6183,-8356.131,-1926.674,-312.6817,0,0
26.81381,-10385.82,-2464.249,-632.657,-8318.259,-1821.38,-504.2169,0,0
26.84699,-10372.41,-2405.434,-661.4335,-8308.085,-1769.234,-510.7987,0,0
26.86358,-10389.1,-2415.303,-654.9103,-8329.805,-1827.398,-449.9713,0,0
26.89676,-10373.63,-2433.044,-621.3556,-8309.143,-1828.28,-436.0092,0,0
26.99628,-10373.41,-2414.659,-710.2322,-8300.209,-1772.212,-463.5649,0,0
26.99628,-10336.77,-2371.699,-673.3402,-8290.067,-1722.776,-499.0164,0,0
27.02946,-10361.33,-2381.669,-623.7016,-8309.011,-1749.12,-396.5477,0,0
27.02946,-10389.21,-2349.857,-635.0211,-8325.938,-1755.38,-365.9054,0,0
27.07923,-10383.31,-2406.848,-610.5399,-8321.404,-1770.756,-461.1298,0,0
27.12899,-10337.74,-2420.789,-602.4913,-8295.479,-1732.609,-463.7621,0,0
27.12899,-10386.74,-2369.44,-573.4185,-8324.167,-1787.315,-287.5192,0,0
27.16217,-10388.73,-2393.604,-489.8506,-8325.655,-1770.587,-318.8456,0,0
27.21193,-10388.72,-2394.074,-557.5304,-8325.613,-1748.499,-373.7382,0,0
27.21193,-10359.85,-2387.17,-587.5293,-8307.977,-1750.743,-520.5794,0,0
27.2617,-10381.87,-2377.855,-663.1285,-8320.426,-1709.056,-454.2251,0,0
27.29488,-10369.24,-2364.927,-538.9454,-8306.34,-1771.069,-339.5238,0,0
27.31147,-10365.15,-2413.542,-516.7982,-8303.27,-1855.005,-339.8132,0,0
27.34464,-10372.83,-2424.35,-610.4084,-8322.486,-1788.207,-445.9243,0,0
27.39441,-10388.65,-2442.873,-606.1911,-8321.258,-1725.516,-490.4619,0,0
27.44418,-10394.32,-2383.792,-601.2766,-8329.979,-1755.748,-420.0122,0,0
27.44418,-10393.17,-2372.658,-627.0568,-8329.041,-1647.326,-418.0519,0,0
27.47735,-10384.64,-2307.701,-491.4236,-8318.047,-1600.276,-366.5043,0,0
27.52712,-10424.96,-2291.064,-451.1945,-8353.251,-1639.062,-279.6275,0,0
27.52712,-10405.21,-2334.498,-401.8976,-8342.438,-1720.822,-170.5643,0,0
27.57688,-10353.64,-2357.323,-371.3664,-8294.126,-1750.25,-251.1456,0,0
27.62665,-10355.57,-2380.934,-503.5485,-8300.175,-1786.524,-314.4747,0,0
27.65983,-10358.1,-2438.453,-532.2667,-8293.354,-1810.887,-320.4914,0,0
27.65983,-10368.51,-2427.97,-520.3277,-8305.833,-1768.504,-343.5715,0,0
27.70959,-10374.79,-2415.284,-512.5558,-8315.104,-1798.536,-269.2655,0,0
27.75936,-10416.23,-2390.446,-470.2869,-8342.318,-1751.972,-267.4013,0,0
27.79254,-10401.47,-2402.417,-384.9666,-8339.769,-1728.973,-271.2421,0,0
27.80913,-10403.85,-2385.933,-397.2199,-8328.204,-1782.322,-231.4459,0,0
27.8423,-10363.92,-2504.255,-363.893,-8302.092,-1881.157,-236.6368,0,0
27.89207,-10362.85,-2539.486,-501.2844,-8305.8,-1924.132,-309.0064,0,0
27.92525,-10354.69,-2557.305,-495.7162,-8299.645,-1893.605,-294.7367,0,0
27.94184,-10419.87,-2668.504,-487.0055,-8345.065,-1931.134,-330.7382,0,0
27.975,-10344.82,-2523.568,-541.093,-8283.188,-1862.345,-295.2464,0,0
28.02478,-10350.78,-2576.973,-410.7953,-8296.768,-2000.615,-164.1246,0,0
28.07454,-10322.51,-2587.99,-452.7133,-8270.857,-1923.348,-246.462,0,0
28.07454,-10312.87,-2581.543,-468.2956,-8263.7,-1927.41,-261.8427,0,0
28.10772,-10329.78,-2523.32,-526.6826,-8285.692,-1871.508,-308.4271,0,0
28.15749,-10345.63,-2560.181,-495.7156,-8289.042,-1929.464,-301.5246,0,0
28.15749,-10348.25,-2513.411,-519.1692,-8291.107,-1917.569,-276.4391,0,0
28.25702,-10334.37,-2529.642,-476.6473,-8280.553,-1896.315,-317.603,0,0
28.34031,-10357.41,-2515.473,-552.4313,-8293.795,-1869.331,-383.9915,0,0
28.34031,-10362.01,-2553.522,-610.6497,-8306.174,-1877.877,-442.483,0,0
28.39009,-10375.88,-2513.43,-609.4171,-8307.865,-1846.341,-433.2217,0,0
28.39009,-10367.14,-2476.057,-560.8274,-8305.558,-1838.372,-393.7123,0,0
28.42327,-10359.8,-2472.334,-552.4798,-8304.352,-1847.871,-406.2126,0,0
28.43986,-10341.13,-2508.542,-572.894,-8285.664,-1857.078,-396.6473,0,0
28.47304,-10347.95,-2491.234,-576.4151,-8286.506,-1812.03,-452.2899,0,0
28.47304,-10333.13,-2471.302,-531.156,-8275.243,-1872.573,-356.762,0,0
28.5228,-10335.69,-2501.084,-561.055,-8286.158,-1911.687,-369.6316,0,0
28.55598,-10343,-2547.528,-596.3074,-8287.365,-1853.69,-458.7778,0,0
28.57257,-10355.04,-2515.232,-556.746,-8309.881,-1844.753,-365.0918,0,0
28.65551,-10392.17,-2518.385,-501.6153,-8320.453,-1846.354,-273.9771,0,0
28.70527,-10381.28,-2485.282,-455.4419,-8316.428,-1806.697,-239.5964,0,0
28.70527,-10345.97,-2426.294,-453.9669,-8289.38,-1794.797,-251.662,0,0
28.75504,-10324.21,-2442.982,-503.4878,-8268.384,-1789.56,-296.765,0,0
28.75504,-10335.97,-2422.617,-512.683,-8281.934,-1757.921,-316.1016,0,0
28.78822,-10334.23,-2466.321,-528.6547,-8285.104,-1749.519,-344.9648,0,0
28.83798,-10354.45,-2434.645,-505.2824,-8296.158,-1781.508,-286.3626,0,0
28.83798,-10311.93,-2473.748,-543.641,-8263.69,-1776.932,-380.3088,0,0
28.87116,-10351.48,-2454.842,-544.4953,-8289.596,-1797.776,-362.5119,0,0
28.97069,-10365.77,-2454.273,-508.5918,-8304.921,-1845.338,-314.4979,0,0
28.97069,-10329.79,-2531.648,-517.335,-8277.384,-1912.124,-328.7319,0,0
29.02046,-10345.34,-2546.975,-586.972,-8284.894,-1890.801,-422.6221,0,0
29.02046,-10340.02,-2549.175,-542.1862,-8280.854,-1891.084,-378.6823,0,0
29.05363,-10313.7,-2563.515,-529.476,-8260.794,-1881.55,-378.843,0,0
29.05363,-10339.47,-2585.868,-536.1724,-8280.594,-1900.031,-432.9055,0,0
29.1034,-10338.03,-2526.579,-536.3701,-8283.945,-1856.961,-347.558,0,0
29.15317,-10310.7,-2510.165,-530.8574,-8263.092,-1931.621,-285.7592,0,0
29.15317,-10307.04,-2551.634,-542.4254,-8260.413,-1935.957,-357.621,0,0
29.18673,-10307.33,-2567.976,-551.9876,-8251.886,-1890.569,-409.1926,0,0
29.23649,-10312,-2536.376,-549.1977,-8260.009,-1829.452,-393.3211,0,0
29.23649,-10297.26,-2491.858,-562.4066,-8262.13,-1809.379,-377.8129,0,0
29.2863,-10300.1,-2482.232,-611.3636,-8246.667,-1734.648,-540.5493,0,0
29.33609,-10302.78,-2448.656,-544.8439,-8257.696,-1798.834,-370.1333,0,0
29.36928,-10344.54,-2491.42,-478.6435,-8289.643,-1872.437,-299.4154,0,0
29.36928,-10377.76,-2528.908,-441.4585,-8310.477,-1858.922,-291.0221,0,0
29.41907,-10358.05,-2527.338,-447.6299,-8295.229,-1883.123,-283.6592,0,0
29.46885,-10328.54,-2581.189,-492.2147,-8281.463,-1950.694,-262.3751,0,0
29.46885,-10293.63,-2590.435,-513.8645,-8259.246,-1899.772,-309.9083,0,0
29.50205,-10336.57,-2565.592,-449.5398,-8278.855,-1860.906,-281.1101,0,0
29.60162,-10361.53,-2525.784,-438.8598,-8297.884,-1852.879,-286.2508,0,0
29.60162,-10322.8,-2514.139,-445.2843,-8272.636,-1867.568,-267.3175,1,0
29.65141,-10333.42,-2522.088,-484.2356,-8285.204,-1828.24,-316.6948,1,0
29.6846,-10366.28,-2458.84,-467.8005,-8296.979,-1776.454,-272.0605,1,0
29.6846,-10324.22,-2494.871,-440.449,-8269.187,-1781.304,-300.0941,1,0
29.73439,-10366.14,-2492.16,-465.3911,-8305.665,-1774.183,-335.618,1,0
29.73439,-10354.05,-2479.174,-437.1979,-8296.315,-1844.241,-264.243,1,0
29.78418,-10320.24,-2535.093,-544.5157,-8266.006,-1822.729,-477.0989,1,0
29.81737,-10300.44,-2529.679,-574.0204,-8250.975,-1834.64,-470.0292,1,0
29.86715,-10307.92,-2532.117,-586.9077,-8256.831,-1891.305,-481.0254,1,0
29.86715,-10341.32,-2519.944,-614.7382,-8291.288,-1921.732,-497.0608,1,0
29.91694,-10333.3,-2584.034,-505.6928,-8276.249,-1961.327,-400.5435,1,0
29.95013,-10322.89,-2596.213,-545.8571,-8268.306,-1943.369,-456.9234,1,0
29.96672,-10351.19,-2613.127,-577.692,-8289.95,-1917.726,-423.929,1,0
29.99992,-10366.58,-2588.769,-455.827,-8301.624,-1906.058,-310.2028,1,0
30.0497,-10267.93,-2554.176,-447.747,-8226.199,-1894.717,-296.0528,1,0
30.08289,-10276.93,-2586.427,-459.4283,-8233.337,-1876.078,-245.4875,1,0
30.09949,-10281.5,-2573.186,-352.4414,-8228.169,-1827.956,-218.4964,1,0
30.13268,-10323.16,-2527.553,-311.3999,-8269.014,-1865.202,-170.9109,1,0
30.18247,-10332.26,-2518.488,-324.5134,-8271.514,-1883.839,-96.1037,1,0
30.18247,-10293.15,-2562.717,-269.2086,-8237.185,-1863.918,-155.2405,1,0
30.23225,-10343.43,-2538.592,-336.2944,-8288.987,-1828.6,-199.1314,1,0
30.28204,-10333.13,-2543.807,-357.0278,-8267.717,-1840.735,-224.7706,1,0
30.28204,-10336.75,-2518.832,-337.0457,-8270.453,-1841.684,-165.1809,1,0
30.41481,-10313.32,-2511.925,-336.1549,-8252.529,-1818.524,-127.5134,1,0
30.41481,-10305.2,-2503.233,-270.1178,-8250.811,-1840.584,-113.5534,1,0
30.46459,-10323.89,-2536.867,-293.2632,-8269.583,-1875.794,-147.2971,1,0
30.46459,-10301.69,-2565.997,-328.3664,-8252.613,-1868.905,-230.6941,1,0
30.49779,-10314.25,-2556.2,-382.3357,-8262.266,-1874.635,-226.8251,1,0
30.54757,-10318.33,-2556.085,-349.4245,-8260.961,-1885.28,-219.9462,1,0
30.54757,-10329.52,-2561.93,-351.9682,-8269.508,-1892.427,-167.3816,1,0
30.58076,-10305,-2537.383,-356.2013,-8255.188,-1862.508,-193.7596,1,0
30.59735,-10317.35,-2530.011,-335.4889,-8255.803,-1826.443,-246.9848,1,0
30.63054,-10330.03,-2535.757,-338.5681,-8269.926,-1869.446,-198.09,1,0
30.68033,-10337.47,-2512.185,-399.8249,-8279.995,-1811.293,-253.8061,1,0
30.68033,-10317.41,-2504.405,-405.7488,-8269.031,-1792.794,-295.8233,1,0
30.71352,-10350,-2514.843,-411.0603,-8285.046,-1788.516,-348.9167,1,0
30.76331,-10353.29,-2472.986,-426.9599,-8291.879,-1800.229,-309.1794,1,0
30.76331,-10328.48,-2486.624,-454.965,-8272.829,-1787.045,-282.3775,1,0
30.86288,-10312.78,-2514.407,-423.1143,-8251.97,-1812.608,-250.074,1,0
30.89608,-10279.16,-2537.37,-378.3639,-8230.81,-1837.677,-247.1395,1,0
30.94586,-10300.81,-2544.327,-351.7855,-8247.522,-1858.171,-209.4418,1,0
30.94586,-10307.05,-2508.95,-361.8788,-8247.93,-1849.064,-167.1927,1,0
30.99565,-10317.39,-2537.429,-328.6638,-8264.744,-1832.032,-213.2448,1,0
30.99565,-10328.04,-2512.181,-402.8804,-8268.432,-1811.355,-227.1398,1,0
31.02884,-10337.47,-2507.514,-374.709,-8271.16,-1794.857,-213.6321,1,0
31.04544,-10339.49,-2471.745,-357.7811,-8281.507,-1772.936,-216.0013,1,0
31.07863,-10311.88,-2474.038,-330.8797,-8264.778,-1800.675,-158.715,1,0
31.12842,-10341.19,-2518.69,-333.818,-8278.313,-1813.85,-227.9622,1,0
31.12842,-10363.67,-2490.005,-312.6909,-8295.396,-1847.069,-149.8678,1,0
31.1782,-10365.51,-2506.564,-360.65,-8301.085,-1837.262,-132.4754,1,0
31.2114,-10380.78,-2499.028,-243.3989,-8317.025,-1821.515,-167.7921,1,0
31.26118,-10396.1,-2554.578,-222.0547,-8319.65,-1848.436,-74.84462,1,0
31.31096,-10359.1,-2534.042,-222.3721,-8291.193,-1885.506,-45.45381,1,0
31.31096,-10384.89,-2519.036,-250.3117,-8301.965,-1884.955,-90.88141,1,0
31.36075,-10323.22,-2533.992,-314.2564,-8263.621,-1840.027,-164.4016,1,0
31.39394,-10302.83,-2515.057,-317.377,-8252.596,-1788.698,-176.478,1,0
31.39394,-10292.34,-2527.947,-305.541,-8240.32,-1820.535,-111.4665,1,0
31.44373,-10325.25,-2484.757,-320.1648,-8270.06,-1797.544,-68.76534,1,0
31.44373,-10328.11,-2468.419,-330.8757,-8267.854,-1722.355,-191.5133,1,0
31.49351,-10317.6,-2487.641,-318.3788,-8264.288,-1791.924,-135.0419,1,0
31.57602,-10334.87,-2536.588,-335.0022,-8264.236,-1858.192,-88.22577,1,0
31.62578,-10281.67,-2562.789,-326.9616,-8228.074,-1884.401,-151.708,1,0
31.62578,-10304.05,-2523.871,-301.313,-8245.367,-1857.484,-136.8063,1,0
31.65897,-10291.92,-2514.246,-286.6424,-8231.771,-1845.62,-117.0818,1,0
31.67556,-10301.6,-2451.956,-351.4374,-8248.17,-1783.917,-113.2178,1,0
31.70874,-10317.55,-2393.89,-359.5418,-8251.558,-1642.905,-194.9977,1,0
31.70874,-10325.71,-2288.829,-303.3992,-8266.668,-1609.063,-174.6397,1,0
31.75852,-10328.39,-2252.774,-346.4979,-8273.109,-1555.838,-300.014,1,0
31.7917,-10388.66,-2344.89,-387.7953,-8314.637,-1603.042,-387.9169,1,0
31.80829,-10343.74,-2351.733,-324.8142,-8275.652,-1703.559,-207.0992,1,0
31.85806,-10358.14,-2407.941,-311.5141,-8291.028,-1797.973,-110.232,1,0
31.89125,-10338.78,-2439.153,-410.3933,-8289.429,-1761.336,-304.1862,1,0
31.94103,-10338.6,-2445.377,-390.0415,-8280.378,-1749.131,-384.8586,1,0
31.94103,-10359.34,-2470.332,-406.93,-8291.745,-1829.623,-283.1078,1,0
31.97421,-10359.08,-2453.024,-365.2732,-8287.021,-1876.795,-214.7424,1,0
32.02399,-10362.03,-2466.659,-368.3009,-8293.633,-1842.581,-267.4441,1,0
32.02399,-10368.11,-2435.79,-401.8617,-8298.186,-1819.898,-233.3795,1,0
32.07376,-10369.27,-2429.407,-418.8587,-8294.543,-1733.515,-316.028,1,0
32.12354,-10360.86,-2340.138,-445.2393,-8292.466,-1645.84,-275.4633,1,0
32.12354,-10354.78,-2331.142,-403.9382,-8283.344,-1602.64,-265.2838,1,0
32.2065,-10328.95,-2288.69,-321.7962,-8272.476,-1551.966,-212.1588,1,0
32.25627,-10299.65,-2288.302,-292.396,-8245.747,-1567.054,-41.45928,1,0
32.25627,-10299.32,-2290.516,-166.7724,-8241.244,-1556.046,-85.48784,1,0
32.30605,-10307.13,-2343.601,-173.5458,-8238.52,-1631.738,-153.963,1,0
32.33923,-10348.4,-2341.958,-251.9528,-8287.891,-1668.913,-92.69973,1,0
32.33923,-10360.65,-2300.744,-341.7161,-8292.74,-1602.388,-131.1425,1,0
32.389,-10331.03,-2254.589,-252.6913,-8261.165,-1540.347,-124.465,1,0
32.389,-10342.35,-2248.638,-267.8012,-8283.146,-1566.802,-92.78404,1,0
32.43878,-10403.45,-2179.616,-221.6803,-8312.032,-1522.854,-111.3074,1,0
32.47196,-10365.51,-2279.565,-260.5561,-8296.142,-1582.88,-239.3259,1,0
32.47196,-10339.96,-2268.146,-320.8088,-8276.556,-1608.718,-186.624,1,0
32.52174,-10378.17,-2289.204,-303.6153,-8296.879,-1639.903,-253.9947,1,0
32.5715,-10405.8,-2312,-350.5556,-8326.73,-1657.882,-282.1454,1,0
32.5715,-10392.98,-2304.647,-350.6992,-8316.722,-1652.202,-243.4161,1,0
32.60469,-10350.82,-2330.176,-329.6747,-8284.394,-1678.305,-222.4404,1,0
32.65446,-10364.87,-2347.798,-289.1322,-8299.583,-1716.818,-170.3414,1,0
32.65446,-10369.82,-2348.221,-309.1784,-8294.461,-1681.442,-179.1065,1,0
32.70424,-10352.57,-2366.402,-199.6085,-8285.694,-1712.07,-120.9852,1,0
32.75401,-10373.58,-2333.106,-246.3633,-8297.332,-1678.388,-120.2343,1,0
32.75401,-10406.82,-2322.758,-269.3218,-8327.087,-1634.422,-166.2626,1,0
32.83697,-10412.8,-2289.161,-222.6675,-8331.474,-1557.604,-115.4933,1,0
32.88674,-10400.45,-2250.6,-161.9337,-8321.872,-1556.442,-32.0252,1,0
32.88674,-10390.77,-2220.173,-160.6583,-8305.502,-1564.587,-76.76004,1,0
32.93652,-10361.57,-2251.162,-182.0483,-8287.602,-1599.403,-34.78018,1,0
32.9697,-10325.77,-2287.979,-141.4776,-8269.203,-1606.358,-76.50732,1,0
32.98629,-10348.43,-2296.696,-170.4847,-8282.237,-1645.48,-58.29626,1,0
33.01947,-10334.12,-2296.689,-154.6423,-8262.529,-1633.241,-83.89142,1,0
33.06925,-10329.15,-2318.319,-174.498,-8263.312,-1674.661,-117.5698,1,0
33.06925,-10366.45,-2339.902,-199.2828,-8287.489,-1693.198,-119.1399,1,0
33.11903,-10411.54,-2295.146,-190.5493,-8330.757,-1666.843,-82.0414,1,0
33.15221,-10369.12,-2381.267,-115.7537,-8289.315,-1802.604,-38.37286,1,0
33.15221,-10373.95,-2430.377,-149.1802,-8297.434,-1824.608,-70.07693,1,0
33.20198,-10380.14,-2401.145,-154.8251,-8293.269,-1727.171,-108.9184,1,0
33.23516,-10349.22,-2363.912,-214.5518,-8278.506,-1723.123,-67.34024,1,0
33.23516,-10324.71,-2359.537,-181.6395,-8255.433,-1675.313,-100.4074,1,0
33.28532,-10327.16,-2360.569,-132.7596,-8261.907,-1709.311,15.53551,1,0
33.3351,-10314.53,-2328.889,-77.62282,-8247.968,-1721.309,21.51229,1,0
33.3351,-10347.25,-2321.407,-141.1226,-8277.548,-1692.839,-53.18699,1,0
33.38488,-10371.03,-2336.203,-216.1703,-8291.288,-1647.117,-120.5617,1,0
33.41806,-10351.57,-2296.872,-211.0448,-8276.374,-1674.804,-18.40443,1,0
33.46783,-10327.99,-2300.467,-194.922,-8258.39,-1670.184,25.69371,1,0
33.46783,-10346.45,-2344.675,-77.15878,-8277.026,-1604.053,66.10256,1,0
33.51761,-10392.87,-2215.54,-27.9199,-8299.174,-1566.558,128.6622,1,0
33.55079,-10409.68,-2246.062,-33.92875,-8325.168,-1578.16,197.0498,1,0
33.60057,-10444.87,-2214.322,48.64875,-8351.812,-1564.247,357.0865,1,0
33.61716,-10380.73,-2196.345,139.9941,-8298.098,-1575.026,406.7677,1,0
33.65034,-10300.79,-2222.722,177.6754,-8245.908,-1642.895,320.8719,1,0
33.70012,-10309.85,-2218.325,13.22967,-8244.213,-1658.776,104.7693,1,0
33.7333,-10365.27,-2180.727,-105.8893,-8286.733,-1616.593,-5.4343,1,0
33.7333,-10383.4,-2199.653,-238.6448,-8296.12,-1616.89,-170.1185,1,0
33.78308,-10424.85,-2176.812,-364.8314,-8327.677,-1563.082,-342.1924,1,0
33.83286,-10428.83,-2186.923,-388.6378,-8330.483,-1639.817,-265.7971,1,0
33.88263,-10435.17,-2189.29,-407.4973,-8339.541,-1693.24,-199.4812,1,0
33.91581,-10425.25,-2219.083,-372.2932,-8331.735,-1668.868,-231.1686,1,0
33.91581,-10373.68,-2249.126,-325.8378,-8301.065,-1703.117,-188.7403,1,0
33.96559,-10406.72,-2272.95,-292.7294,-8313.026,-1767.38,-193.8999,1,0
33.99877,-10464.55,-2193.281,-405.8609,-8361.528,-1720.065,-116.3895,1,0
34.01536,-10498.05,-2164.767,-402.5013,-8386.808,-1563.941,-151.8412,1,0
34.09832,-10442.78,-2145.327,-377.0497,-8344.223,-1428.175,-234.662,1,0
34.18128,-10418.89,-2100.807,-265.9275,-8325.854,-1456.358,-91.93317,1,0
34.19787,-10438.03,-2031.117,-261.9245,-8336.003,-1463.623,-25.77267,1,0
34.19787,-10424.66,-2004.188,-273.5067,-8334.57,-1422.445,-73.57937,1,0
34.23105,-10385.84,-2016.683,-312.37,-8300.465,-1383.737,-181.1078,1,0
34.28083,-10416.35,-2034.369,-292.481,-8319.437,-1412.667,-167.2999,1,0
34.28083,-10446.38,-2027.211,-287.253,-8346.789,-1438.789,-110.7818,1,0
34.31401,-10468.3,-2026.655,-283.8309,-8363.39,-1446.582,-84.04903,1,0
34.3306,-10444.24,-2054.09,-304.3972,-8340.397,-1461.274,-122.7788,1,0
34.36378,-10405.51,-2081.126,-300.7219,-8319.622,-1433.984,-167.2409,1,0
34.38078,-10383.02,-2078.208,-200.5384,-8298.088,-1497.078,-26.61991,1,0
34.41396,-10415.44,-2093.365,-350.2716,-8314.12,-1542.513,22.94466,1,0
34.49701,-10500.86,-2056.078,-295.8375,-8388.22,-1310.98,-159.1312,1,0
34.51194,-10464.21,-1985.716,-227.9019,-8359.919,-1317.078,-32.87161,1,0
34.54682,-10395.85,-2007.655,-214.5932,-8312.034,-1441.346,111.619,1,0
34.54682,-10323.87,-1985.617,-199.8533,-8252.779,-1382.097,78.52193,1,0
34.59663,-10409.64,-2018.2,-217.9526,-8318.645,-1428.397,-76.19106,1,0
34.6291,-10427.97,-2027.239,-297.6906,-8337.092,-1435.463,-109.4069,1,0
34.64643,-10444.25,-2077.082,-287.4591,-8345.027,-1529.843,-73.42204,1,0
34.67964,-10451.32,-2104.807,-369.4952,-8341.458,-1551.067,-139.5637,1,0
34.67964,-10416.36,-2200.503,-389.8136,-8319.099,-1615.782,-160.22,1,0
34.72945,-10425.86,-2203.984,-391.8713,-8335.249,-1595.392,-157.7513,1,0
34.81246,-10417.15,-2213.311,-418.3707,-8324.145,-1612.248,-123.5829,1,0
34.82906,-10406.45,-2186.902,-448.3593,-8316,-1582.993,-161.9325,1,0
34.86226,-10398.06,-2184.087,-487.226,-8309.656,-1484.129,-252.0879,1,0
34.87887,-10351.2,-2120.498,-492.3944,-8269.536,-1426.38,-242.061,1,0
34.89547,-10315.22,-2117.481,-450.8543,-8246.771,-1478.56,-216.4062,1,0
34.94528,-10301.5,-2163.047,-488.4102,-8236.658,-1556.615,-259.3682,1,0
34.96188,-10326.28,-2262.47,-548.4527,-8260.381,-1665.807,-365.3343,1,0
34.99509,-10370.17,-2338.75,-622.0682,-8289.68,-1746.931,-405.1906,1,0
35.0449,-10386,-2417.62,-610.5567,-8297.382,-1809.54,-461.8894,1,0
35.0449,-10347.58,-2401.223,-692.8151,-8272.473,-1844.642,-410.9808,1,0
35.0947,-10349.69,-2378.248,-666.1404,-8278.644,-1773.436,-420.982,1,0
35.12791,-10351.19,-2376.132,-626.4255,-8284.318,-1721.244,-495.1105,1,0
35.12791,-10329.02,-2363.307,-660.1888,-8258.605,-1723.946,-392.6916,1,0
35.17772,-10374.87,-2358.255,-663.1629,-8298.2,-1711.333,-469.1891,1,0
35.22752,-10407.37,-2277.317,-711.0593,-8318.536,-1622.604,-476.2787,1,0
35.22752,-10284.31,-2242.664,-692.4689,-8215.591,-1621.959,-416.7862,1,0
35.26073,-10292.27,-2223.463,-639.7788,-8226.462,-1620.161,-463.0667,1,0
35.27733,-10316.4,-2273.205,-654.8463,-8249.592,-1657.727,-392.7393,1,0
35.31054,-10338.7,-2229.904,-539.8185,-8262.327,-1681.948,-260.6658,1,0
35.36034,-10360.69,-2252.868,-440.1478,-8283.603,-1749.593,-280.4635,1,0
35.41015,-10396.88,-2290.039,-603.1332,-8306.745,-1742.859,-430.2603,1,0
35.44336,-10414.42,-2290.155,-633.3527,-8319.966,-1668.197,-511.2171,1,0
35.45996,-10418.77,-2259.513,-654.9449,-8336.364,-1730.328,-418.9245,1,0
35.49316,-10410.03,-2313.601,-652.6722,-8316.155,-1719.975,-486.4321,1,0
35.54297,-10391.07,-2253.392,-691.7641,-8301.535,-1685.168,-433.3506,1,0
35.54297,-10356.55,-2281.048,-630.8499,-8270.69,-1663.376,-454.1185,1,0
35.59278,-10374.01,-2235.572,-621.0658,-8288.541,-1658.309,-400.4812,1,0
35.62598,-10383.25,-2205.23,-617.6265,-8291.163,-1612.28,-408.9012,1,0
35.62598,-10368.61,-2181.353,-665.0192,-8288.83,-1571.894,-446.6978,1,0
35.67579,-10362.41,-2175.209,-681.5393,-8275.248,-1531.031,-514.4766,1,0
35.7256,-10344.32,-2192.03,-706.4426,-8265.925,-1551.242,-517.038,1,0
35.77541,-10383.82,-2171.285,-694.6851,-8296.189,-1501.107,-531.7565,1,0
35.80861,-10408.05,-2205.37,-581.493,-8314.626,-1553.044,-493.4551,1,0
35.80861,-10427.55,-2185.533,-576.5366,-8320.514,-1664.396,-246.5076,1,0
35.85842,-10373.16,-2260.796,-464.4856,-8283.244,-1713.788,-274.8136,1,0
35.89163,-10341.34,-2235.16,-542.266,-8272.287,-1672.047,-307.7203,1,0
35.90823,-10375.18,-2311.644,-482.5476,-8289.382,-1665.509,-377.7125,1,0
35.94144,-10382.73,-2256.523,-482.17,-8304.013,-1696.3,-279.955,1,0
35.99125,-10409.39,-2287.67,-558.4904,-8319.887,-1729.594,-325.955,1,0
36.02445,-10387.07,-2327.251,-541.821,-8289.416,-1706.614,-420.8539,1,0
36.04105,-10342.68,-2334.821,-585.6501,-8264.396,-1782.996,-356.2389,1,0
36.07426,-10328.11,-2339.654,-609.317,-8244.559,-1790.11,-426.3968,1,0
36.12406,-10343.05,-2324.707,-661.7332,-8260.601,-1739.499,-445.451,1,0
36.15727,-10339.95,-2338.877,-621.7031,-8262.779,-1712.69,-458.0581,1,0
36.15727,-10366.1,-2348.069,-567.9706,-8278.416,-1755.806,-394.3824,1,0
36.22368,-10389.16,-2360.847,-580.2006,-8300.449,-1742.295,-402.6639,1,0
36.25688,-10401.49,-2284.883,-599.8391,-8300.91,-1692.373,-364.4831,1,0
36.25688,-10352.99,-2324.262,-575.0854,-8268.202,-1689.807,-382.4698,1,0
36.30669,-10355.72,-2306.758,-582.2682,-8270.363,-1661.185,-439.2428,1,0
36.3565,-10366.29,-2261.658,-563.6021,-8287.357,-1671.424,-347.9077,1,0
36.3565,-10349.39,-2256.352,-568.06,-8265.58,-1667.791,-340.6698,1,0
36.38923,-10349.41,-2254.831,-611.4199,-8274.536,-1628.001,-429.8613,1,0
36.43904,-10372.94,-2246.754,-532.2076,-8283.679,-1649.752,-386.4095,1,0
36.48884,-10374.37,-2228.134,-568.8599,-8284.745,-1681.955,-337.5185,1,0
36.48884,-10391.77,-2260.668,-601.3671,-8293.566,-1660.376,-404.0172,1,0
36.53864,-10395.11,-2250.879,-565.7798,-8296.035,-1669.325,-419.6894,1,0
36.57184,-10388.05,-2303.229,-585.4915,-8294.986,-1708.528,-377.9199,1,0
36.60504,-10339.55,-2298.764,-585.6516,-8253.473,-1693.078,-386.9201,1,0
36.62164,-10342.25,-2304.579,-522.7443,-8260.111,-1702.981,-369.9136,1,0
36.67144,-10354.09,-2259.988,-536.485,-8269.257,-1683.521,-324.3466,1,0
36.70463,-10332.34,-2268.403,-500.7204,-8248.273,-1669.774,-327.4551,1,0
36.70463,-10305.34,-2280.092,-525.5379,-8232.231,-1651.612,-371.313,1,0
36.80424,-10352,-2297.273,-530.4077,-8263.631,-1696.088,-337.7276,1,0
36.83744,-10350.59,-2305.766,-458.3136,-8258.144,-1716.341,-306.1022,1,0
36.83744,-10322.05,-2290.115,-496.5058,-8240.829,-1744.696,-267.198,1,0
36.88724,-10396.45,-2268.465,-498.0727,-8311.042,-1656.845,-393.3405,1,0
36.88724,-10396.83,-2273.322,-482.7686,-8302.27,-1651.246,-339.2827,1,0
36.93704,-10345.63,-2286.866,-495.8197,-8267.464,-1731.201,-274.8964,1,0
36.98684,-10354.48,-2312.512,-514.3623,-8265.399,-1709.669,-370.1721,1,0
37.02004,-10338.53,-2285.938,-473.1805,-8253.249,-1673.487,-379.1438,1,0
37.02004,-10365.87,-2269.351,-491.1725,-8278.637,-1744.226,-351.0996,1,0
37.11964,-10373.08,-2313.451,-520.7239,-8288.533,-1824.05,-386.7356,1,0
37.11964,-10412.71,-2313.269,-611.0629,-8314.278,-1762.906,-427.357,1,0
37.16945,-10377.92,-2333.84,-594.1495,-8278.655,-1698.947,-467.5381,1,0
37.20264,-10389.39,-2319.148,-550.2953,-8291.807,-1714.262,-396.0224,1,0
37.20264,-10399.37,-2265.456,-582.9664,-8308.21,-1700.918,-323.1156,1,0
37.25245,-10382.99,-2238.723,-558.1835,-8291.145,-1579.797,-419.4317,1,0
37.28565,-10364.34,-2202.916,-499.9506,-8281.296,-1603.282,-345.4803,1,0
37.28565,-10390.06,-2241.254,-460.1135,-8296.519,-1641.524,-343.4814,1,0
37.33545,-10408.29,-2256.326,-504.2487,-8310.367,-1711.093,-291.8248,1,0
37.38525,-10405.46,-2238.668,-520.3287,-8308.078,-1654.108,-325.6535,1,0
37.38525,-10404.7,-2221.773,-478.7551,-8302.965,-1579.04,-379.0382,0,0
37.43505,-10425.07,-2201.202,-413.3379,-8318.434,-1621.828,-278.1975,0,0
37.46825,-10405.74,-2200.988,-456.2036,-8307.959,-1657.081,-250.954,0,0
37.46825,-10392.11,-2199.323,-413.5446,-8288.621,-1603.05,-284.9203,0,0
37.51805,-10359.59,-2165.97,-409.9753,-8268.239,-1595.286,-287.219,0,0
37.56785,-10356.3,-2201.341,-414.251,-8270.284,-1616.779,-300.1824,0,0
37.56785,-10385.68,-2211.312,-429.9432,-8292.824,-1658.607,-267.232,0,0
37.60105,-10384.09,-2266.626,-421.576,-8282.738,-1666.786,-278.8019,0,0
37.65085,-10366.42,-2240.638,-387.4409,-8291.417,-1662.895,-239.9279,0,0
37.70065,-10387.5,-2278.605,-431.1468,-8289.815,-1687.958,-230.9755,0,0
37.70065,-10447.19,-2254.408,-427.8565,-8344.227,-1619.741,-302.0838,0,0
37.75045,-10413.24,-2198.905,-448.0153,-8318.057,-1584.625,-269.3323,0,0
37.78365,-10387.56,-2222.123,-411.9398,-8293.919,-1672.104,-219.7148,0,0
37.80025,-10397.9,-2225.929,-478.3519,-8301.83,-1625.958,-309.16,0,0
37.83345,-10407.25,-2213.931,-472.4964,-8308.948,-1606.898,-298.2068,0,0
37.86665,-10367.22,-2203.905,-392.034,-8273.905,-1642.302,-214.2908,0,0
37.91645,-10340.51,-2237.72,-307.0506,-8253.628,-1681.188,-170.7708,0,0
37.93306,-10377.27,-2244.117,-345.2055,-8286.318,-1675.715,-183.2704,0,0
37.96626,-10365.77,-2230.961,-370.6862,-8277.573,-1646.742,-195.344,0,0
38.04926,-10363.58,-2279.682,-418.9754,-8267.109,-1667.321,-245.477,0,0
38.09906,-10374.5,-2243.219,-411.9566,-8284.396,-1666.208,-207.7298,0,0
38.11566,-10354.52,-2241.208,-399.7892,-8273.597,-1638.591,-251.7287,0,0
38.14886,-10338.59,-2242.242,-440.1541,-8252.654,-1646.326,-266.5036,0,0
38.14886,-10355.95,-2209.392,-438.0732,-8261.632,-1590.511,-289.1921,0,0
38.18206,-10356.26,-2186.802,-384.4074,-8261.953,-1586.479,-243.6658,0,0
38.19865,-10373.2,-2175.097,-405.0432,-8283.816,-1611.01,-215.7581,0,0
38.23138,-10350.04,-2214.007,-448.0406,-8261.683,-1628.146,-290.5057,0,0
38.28119,-10355.33,-2239.352,-386.5665,-8270.234,-1663.869,-258.9274,0,0
38.28119,-10386.29,-2199.021,-413.4049,-8289.478,-1676.463,-219.0938,0,0
38.33091,-10389.87,-2240.755,-454.9988,-8287.707,-1681.422,-299.9456,0,0
38.38073,-10385.12,-2247.738,-465.7397,-8284.012,-1646.465,-302.4091,0,0
38.41392,-10428.78,-2246.396,-458.5482,-8321.722,-1651.482,-274.2832,0,0
38.43052,-10399.82,-2192.574,-418.0706,-8294.971,-1603.974,-197.3089,0,0
38.46365,-10372.61,-2219.524,-353.769,-8278.565,-1601.73,-212.3685,0,0
38.51344,-10377.81,-2209.051,-351.1644,-8286.996,-1607.131,-178.228,0,0
38.51344,-10430.79,-2213.293,-371.8748,-8323.005,-1618.5,-212.3444,0,0
38.56319,-10407.2,-2225.38,-403.6979,-8295.938,-1623.073,-223.7712,0,0
38.59637,-10421.86,-2204.524,-410.2771,-8307.065,-1614.09,-225.2357,0,0
38.62955,-10393.7,-2183.325,-395.9114,-8298.755,-1576.936,-250.2947,0,0
38.64614,-10294.26,-2217.121,-367.4558,-8213.965,-1656.381,-223.5817,0,0
38.69591,-10346.06,-2237.991,-427.9922,-8258.317,-1707.133,-267.9655,0,0
38.72909,-10377.94,-2263.319,-433.04,-8282.787,-1703.532,-301.3263,0,0
38.77886,-10382.27,-2275.811,-431.7871,-8294.947,-1733.038,-276.077,0,0
38.77886,-10409.26,-2243.791,-428.9466,-8311.079,-1710.223,-276.284,0,0
38.81204,-10427.02,-2215.074,-465.5578,-8315.638,-1686.759,-274.2202,0,0
38.82862,-10408.18,-2246.929,-425.0335,-8301.093,-1651.225,-303.7783,0,0
38.8784,-10378.13,-2249.617,-433.133,-8282.515,-1661.295,-301.528,0,0
38.91157,-10388.32,-2243.992,-403.5846,-8281.469,-1719.275,-210.7201,0,0
38.96134,-10349.87,-2274.93,-457.1857,-8256.567,-1733.874,-274.2246,0,0
38.99453,-10349.79,-2260.38,-438.1115,-8261.094,-1682.928,-300.5375,0,0
39.01112,-10382.2,-2236.812,-503.5497,-8285.952,-1652.41,-294.9751,0,0
39.0443,-10421.16,-2210.185,-459.1606,-8320.109,-1630.484,-220.145,0,0
39.09407,-10450.46,-2151.468,-442.9075,-8337.871,-1583.885,-129.6905,0,0
39.09407,-10369.62,-2188.188,-359.5459,-8271.485,-1585.975,-172.969,0,0
39.14384,-10325.54,-2131.338,-366.449,-8242.358,-1586.31,-208.4816,0,0
39.17701,-10404.3,-2170.729,-421.5501,-8307.155,-1620.874,-273.1768,0,0
39.22678,-10412.83,-2185.16,-448.8446,-8304.703,-1664.159,-286.1751,0,0
39.22678,-10397.55,-2217.195,-499.6172,-8292.944,-1678.365,-312.8623,0,0
39.27655,-10368.58,-2236.83,-498.6752,-8266.367,-1684.945,-337.5901,0,0
39.32632,-10374.91,-2221.774,-508.3976,-8271.301,-1645.058,-355.4828,0,0
39.3595,-10389.83,-2190.116,-476.3023,-8291.612,-1629.193,-325.0901,0,0
39.40927,-10379.88,-2175.854,-528.1708,-8279.561,-1612.863,-314.0972,0,0
39.40927,-10354.07,-2185.667,-488.4747,-8259.883,-1594.195,-288.8126,0,0
39.45904,-10347.99,-2168.216,-549.9012,-8259.8,-1599.31,-336.1762,0,0
39.49222,-10354.7,-2186.708,-498.3263,-8256.186,-1581.464,-389.2805,0,0
39.49222,-10388.6,-2131.104,-556.4133,-8286.596,-1578.772,-366.8682,0,0
39.54198,-10381.93,-2161.44,-558.8486,-8285.884,-1569.781,-378.9261,0,0
39.59175,-10385.79,-2108.223,-587.6807,-8288.801,-1680.005,-471.5117,0,0
39.59175,-10402.38,-2164.957,-715.5903,-8301.43,-1621.976,-424.3001,0,0
39.62493,-10393.11,-2183.708,-498.1684,-8285.396,-1623.863,-313.8979,0,0
39.72447,-10381.91,-2164.093,-489.0907,-8281.243,-1647.929,-314.2885,0,0
39.72447,-10396.46,-2212.406,-449.6405,-8292.355,-1659.029,-318.9186,0,0
39.77424,-10451.44,-2186.407,-455.5963,-8329.841,-1647.898,-255.242,0,0
39.77424,-10417.85,-2236.544,-453.679,-8308.382,-1642.082,-306.1397,0,0
39.80742,-10468.88,-2240.805,-288.9763,-8351.671,-1819.398,93.33382,0,0
39.85719,-10511.69,-2377.122,-195.0465,-8379.618,-2114.847,934.1304,0,0
39.85719,-10415.22,-2394.677,464.0688,-8305.565,-2109.653,1004.379,0,0
39.90696,-10459.33,-2481.275,220.6202,-8339.233,-1928.803,521.3011,0,0
39.95673,-10373.04,-2248.755,-150.7283,-8264.335,-1621.323,-17.71333,0,0
40.03969,-10354.67,-2101.206,-467.2451,-8268.241,-1401.865,-482.7049,0,0
40.03969,-10415.49,-1946.537,-776.2084,-8301.579,-1342.526,-587.3633,0,0
40.08945,-10406.66,-1972.436,-814.0433,-8308.11,-1426.342,-593.7403,0,0
40.08945,-10413.86,-1994.527,-826.6379,-8304.735,-1471.125,-566.0484,0,0
40.13922,-10396.86,-1973.161,-838.9077,-8291.736,-1464.749,-612.0442,0,0
40.1724,-10354.83,-2001.218,-929.8332,-8259.704,-1465.055,-694.8884,0,0
40.1724,-10391.45,-2022.054,-879.2841,-8278.998,-1475.768,-693.9297,0,0
40.22217,-10405.18,-1995.325,-912.2481,-8298.402,-1484.103,-671.4637,0,0
40.22217,-10411.15,-2023.257,-912.296,-8307.378,-1482.911,-655.8812,0,0
40.27194,-10365.91,-1999.468,-836.9531,-8259.498,-1475.366,-572.7009,0,0
40.30498,-10359.33,-2040.635,-783.4814,-8263.497,-1481.704,-615.5441,0,0
40.30498,-10435.66,-2043.537,-800.0292,-8326.342,-1500.232,-557.1235,0,0
40.35489,-10453.69,-2036.861,-826.7391,-8331.069,-1503.342,-620.4595,0,0
40.40466,-10427.18,-2092.59,-805.8369,-8315.068,-1562.661,-538.7463,0,0
40.40466,-10411.52,-2099.125,-797.156,-8303.021,-1568.098,-540.8855,0,0
40.43784,-10403.38,-2041.123,-821.7192,-8292.361,-1559.154,-524.6964,0,0
40.4876,-10391.92,-2108.536,-822.2983,-8292.503,-1551.656,-542.5624,0,0
40.53738,-10362.17,-2077.216,-713.7917,-8260.975,-1561.443,-402.9294,0,0
40.57056,-10386.96,-2112.362,-682.4889,-8280.071,-1595.155,-443.278,0,0
40.58715,-10417.15,-2093.667,-675.9447,-8303.182,-1588.454,-461.4835,0,0
40.62033,-10412.63,-2099.497,-762.0652,-8308.527,-1601.933,-491.3811,0,0
40.6701,-10395.61,-2098.591,-801.4652,-8291.051,-1542.94,-567.3264,0,0
40.6701,-10374.5,-2106.603,-797.2125,-8279.392,-1530.231,-572.5966,0,0
40.71987,-10375.64,-2068.09,-789.8401,-8271.492,-1552.642,-491.8807,0,0
40.76964,-10368.59,-2100.81,-750.1066,-8270.638,-1566.865,-541.2322,0,0
40.76964,-10383.55,-2057.356,-805.5151,-8291.027,-1547.762,-606.4149,0,0
40.85258,-10433.52,-2094.884,-780.8298,-8320.323,-1550.181,-513.8283,0,0
40.85258,-10441.39,-2057.951,-707.6642,-8326.168,-1505.638,-447.9557,0,0
40.88577,-10410.23,-2030.67,-698.4846,-8297.784,-1515.447,-451.4508,0,0
40.98531,-10394.01,-2080.474,-720.2465,-8298.676,-1526.231,-498.2118,0,0
41.01848,-10408,-2056.643,-711.8047,-8291.643,-1503.922,-516.2017,0,0
41.03507,-10428.09,-2052.996,-738.908,-8306.975,-1536.721,-477.6555,0,0
41.08484,-10407.62,-2082.596,-752.6595,-8300.132,-1569.892,-494.5805,0,0
41.08484,-10358.06,-2101.253,-704.6737,-8257.855,-1643.31,-471.7845,0,0
41.11802,-10387.92,-2109.532,-711.7382,-8280.842,-1623.312,-514.7048,0,0
41.11802,-10410.01,-2118.351,-765.6641,-8297.756,-1587.997,-516.5535,0,0
41.16779,-10425.14,-2139.904,-730.4091,-8309.267,-1604.585,-513.9075,0,0
41.21756,-10415.02,-2125.797,-794.8359,-8305.886,-1550.68,-571.3798,0,0
41.21756,-10416.81,-2134.335,-749.923,-8298.336,-1556.608,-539.588,0,0
41.25074,-10398.81,-2116.652,-649.0549,-8293.424,-1599.268,-388.5655,0,0
41.30051,-10354.08,-2096.02,-667.9699,-8250.438,-1618.854,-456.3809,0,0
41.30051,-10336.9,-2104.262,-789.9368,-8246.394,-1555.529,-618.4001,0,0
41.35028,-10340.69,-2108.984,-785.0526,-8249.521,-1543.657,-589.6113,0,0
41.38346,-10420.84,-2152.01,-742.759,-8310.888,-1608.395,-476.4425,0,0
41.483,-10412.29,-2168.139,-636.2533,-8299.796,-1658.454,-407.4131,0,0
41.483,-10387.1,-2190.62,-614.8973,-8289.349,-1671.14,-396.551,0,0
41.61572,-10393.5,-2183.333,-656.9341,-8280.953,-1641.122,-414.7116,0,0
41.61572,-10392.63,-2182.251,-660.0723,-8293.588,-1608.76,-546.183,0,0
41.66549,-10387.88,-2170.618,-703.0912,-8285.519,-1633.252,-521.3744,0,0
41.66549,-10388.36,-2161.513,-765.9978,-8272.605,-1691.232,-465.4644,0,0
41.69867,-10303.19,-2254.389,-704.2797,-8220.923,-1745.537,-546.788,0,0
41.69867,-10344.84,-2256.625,-783.044,-8253.045,-1767.753,-606.5183,0,0
41.74843,-10418.32,-2275.283,-791.7943,-8304.841,-1700.866,-611.6863,0,0
41.7982,-10420.15,-2267.992,-748.8107,-8314.952,-1763.063,-476.845,0,0
41.7982,-10424.4,-2275.256,-701.002,-8309.172,-1743.507,-515.1743,0,0
41.83138,-10383.27,-2238.838,-703.8228,-8273.204,-1713.119,-439.0063,0,0
41.83138,-10377.93,-2217.585,-714.4128,-8278.035,-1669.29,-471.3996,0,0
41.88115,-10365.05,-2200.616,-678.3891,-8277.107,-1593.167,-516.5598,0,0
41.91433,-10359.98,-2177.975,-749.5905,-8264.436,-1627.582,-489.2697,0,0
41.91433,-10339.3,-2212.225,-719.7949,-8248.748,-1654.969,-538.7753,0,0
41.98069,-10359.59,-2218.779,-700.0113,-8259.969,-1671.037,-532.4573,0,0
42.01387,-10383.78,-2238.771,-717.3143,-8278.508,-1700.637,-486.9368,0,0
42.01387,-10381.33,-2303.359,-711.3179,-8276.619,-1706.016,-535.0328,0,0
42.06364,-10372.12,-2236.266,-681.6252,-8269.577,-1657.277,-420.9254,0,0
42.06364,-10329.09,-2224.414,-617.8096,-8232.325,-1690.869,-350.6102,0,0
42.11341,-10372.78,-2219.053,-628.7927,-8270.307,-1644.343,-446.7722,0,0
42.14659,-10412.94,-2215.619,-635.103,-8300.959,-1643.999,-406.9643,0,0
42.14659,-10370.89,-2185.512,-634.8414,-8273.134,-1637.975,-346.4034,0,0
42.19636,-10324.12,-2229.785,-554.5476,-8228.584,-1646.146,-423.4314,0,0
42.24651,-10360.02,-2197.275,-622.7612,-8265.063,-1633.247,-436.5236,0,0
42.29628,-10364.72,-2170.892,-646.2263,-8259.817,-1624.844,-436.2948,0,0
42.32946,-10362.95,-2213.378,-683.7954,-8262.926,-1641.933,-472.2473,0,0
42.37923,-10364.24,-2225.377,-682.4218,-8268.369,-1656.652,-424.577,0,0
42.37923,-10347.37,-2224.42,-675.8593,-8246.63,-1663.082,-398.5457,0,0
42.42899,-10367.38,-2230.401,-636.088,-8266.422,-1642.951,-415.9187,0,0
42.46217,-10375.87,-2200.574,-616.2944,-8268.471,-1606.603,-402.3252,0,0
42.46217,-10354.15,-2198.366,-566.2049,-8247.426,-1649.089,-331.8763,0,0
42.51194,-10359.15,-2185.509,-610.2075,-8260.177,-1645.952,-422.9488,0,0
42.56171,-10378.91,-2194.25,-657.8785,-8270.846,-1616.128,-501.2449,0,0
42.56171,-10398.11,-2195.895,-727.5901,-8294.314,-1645.736,-494.7147,0,0
42.64465,-10404.85,-2234.098,-670.1953,-8286.036,-1668.549,-451.7023,0,0
42.69442,-10362.94,-2233.722,-652.7087,-8262.79,-1653.471,-468.2073,0,0
42.69442,-10357.37,-2183.334,-724.0056,-8249.709,-1602.204,-487.682,0,0
42.74418,-10364.05,-2163.085,-700.9969,-8263.744,-1578.601,-491.2035,0,0
42.74418,-10349.34,-2199.551,-683.5686,-8243.673,-1621.356,-445.046,0,0
42.77736,-10345.15,-2180.266,-658.1808,-8249.432,-1591.722,-478.5502,0,0
42.82712,-10376.23,-2207.58,-590.7427,-8268.806,-1643.458,-394.3586,0,0
42.82712,-10368.87,-2195.079,-619.6521,-8267.579,-1688.431,-325.0558,0,0
42.87689,-10377.88,-2250.442,-592.4507,-8278.877,-1707.035,-377.4933,0,0
42.87689,-10379.82,-2258.872,-640.6355,-8275.87,-1672.22,-451.9255,0,0
42.95983,-10389.65,-2245.325,-669.8966,-8278.894,-1706.573,-404.1582,0,0
43.0096,-10378.6,-2258.122,-655.493,-8265.953,-1709.769,-461.3085,0,0
43.0096,-10374.22,-2226,-661.4977,-8267.029,-1696.113,-449.7442,0,0
43.05936,-10362.85,-2290.776,-688.027,-8258.35,-1723.587,-479.9026,0,0
43.09254,-10377.3,-2261.663,-628.9516,-8273.849,-1741.241,-437.9533,0,0
43.09254,-10383.6,-2312.604,-595.7863,-8274.195,-1817.561,-289.7304,0,0
43.1423,-10370.53,-2320.679,-581.3698,-8264.179,-1799.424,-296.9065,0,0
43.19207,-10303.05,-2326.301,-589.5257,-8208.256,-1747.087,-388.3,0,0
43.19207,-10322.56,-2273.768,-649.697,-8227.864,-1719.47,-383.7007,0,0
43.27501,-10290.12,-2271.394,-599.6678,-8203.263,-1756.097,-378.2118,0,0
43.2916,-10348.01,-2245.022,-636.5972,-8247.722,-1717.284,-311.8188,0,0
43.35796,-10330,-2292.88,-547.1899,-8238.431,-1753.844,-340.6969,0,0
43.40772,-10317.43,-2291.905,-665.9935,-8224.479,-1717.215,-442.4785,0,0
43.45749,-10345.66,-2294.817,-697.17,-8246.148,-1701.381,-463.8439,0,0
43.45749,-10313.51,-2245.005,-689.9403,-8230.478,-1719.282,-396.535,0,0
43.50726,-10355.91,-2293.104,-690.3551,-8254.084,-1745.242,-393.1437,0,0
43.50726,-10348.45,-2298.455,-695.4186,-8248.347,-1762.225,-389.9958,0,0
43.5902,-10348.47,-2311.295,-671.8719,-8243.92,-1776.302,-424.2827,0,0
43.5902,-10345.08,-2361.746,-664.7839,-8245.76,-1767.811,-515.7041,0,0
43.63997,-10397.45,-2312.869,-696.8226,-8290.166,-1777.875,-446.547,0,0
43.68974,-10379.16,-2270.56,-725.6746,-8275.997,-1788.076,-431.0192,0,0
43.68974,-10357.11,-2301.561,-735.7597,-8254.619,-1743.262,-522.7392,0,0
43.7233,-10340.74,-2293.804,-775.6763,-8246.538,-1694.386,-595.202,0,0
43.7233,-10319.09,-2269.781,-754.1017,-8225.626,-1748.987,-494.7856,0,0
43.77306,-10351.96,-2266.188,-795.4822,-8241.988,-1752.357,-527.7823,0,0
43.82289,-10320.19,-2328.608,-747.2239,-8226.61,-1696.439,-600.5096,0,0
43.82289,-10334.01,-2299.094,-712.7497,-8232.844,-1718.785,-476.8568,0,0
43.90586,-10364.32,-2264.158,-706.6823,-8256.039,-1712.632,-422.9172,0,0
43.90586,-10355.43,-2242.94,-722.0107,-8249.184,-1683.802,-482.6545,0,0
43.95564,-10331.32,-2242.129,-783.2016,-8226.326,-1638.519,-537.0618,0,0
43.95564,-10352.68,-2227.699,-756.9658,-8242.709,-1610.064,-521.4423,0,0
44.00542,-10338.62,-2157.536,-696.074,-8236.403,-1585.936,-464.8141,0,0
44.03861,-10338.26,-2161.761,-661.6793,-8231.732,-1596.875,-438.3802,0,0
44.03861,-10321.44,-2167.262,-617.2991,-8218.932,-1612.299,-421.3398,0,0
44.08839,-10316.18,-2178.317,-737.5346,-8219.449,-1606.391,-497.1052,0,0
44.08839,-10336.62,-2251.642,-705.6751,-8244.018,-1628.306,-547.9843,0,0
44.13818,-10364.29,-2277.338,-721.1943,-8256.265,-1716.654,-505.9369,0,0
44.17137,-10328.14,-2298.238,-749.8374,-8233.016,-1728.523,-545.7169,0,0
44.18796,-10335.87,-2299.3,-777.8416,-8230.096,-1813.548,-789.8126,0,0
44.22115,-10325.91,-2367.281,-1050.297,-8222.525,-1758.114,-811.4174,0,0
44.27093,-10280.3,-2331.064,-915.86,-8196.64,-1720.934,-678.0955,0,0
44.27093,-10179.84,-2290.206,-851.8958,-8120.166,-1745.498,-658.564,0,0
44.32071,-10253.72,-2324.375,-849.8416,-8168.272,-1757.316,-628.93,0,0
44.3539,-10291.93,-2299.953,-783.6713,-8202.114,-1732.357,-515.8469,0,0
44.3539,-10290.21,-2338.351,-719.4119,-8192.007,-1785.67,-462.2502,0,0
44.40369,-10272.59,-2345.638,-718.6786,-8196.364,-1740.822,-549.3311,0,0
44.45346,-10322.56,-2327.738,-688.0424,-8230.181,-1720.345,-531.6485,0,0
44.48666,-10351.68,-2297.589,-724.6195,-8247.886,-1748.225,-443.4994,0,0
44.48666,-10361.72,-2304.475,-704.0158,-8250.937,-1713.82,-438.917,0,0
44.53644,-10319.54,-2299.192,-612.2642,-8222.981,-1682.105,-440.6948,0,0
44.58622,-10291.47,-2312.672,-660.6951,-8201.536,-1709.104,-442.1711,0,0
44.636,-10322.79,-2283.488,-673.2746,-8225.529,-1679.62,-448.5233,0,0
44.636,-10336.68,-2287.629,-639.6528,-8236.1,-1674.042,-449.7179,0,0
44.66919,-10323.64,-2282.369,-643.1121,-8230.484,-1678.448,-448.2379,0,0
44.71898,-10328.16,-2259.264,-668.8552,-8225.037,-1670.606,-459.5757,0,0
44.76876,-10320.63,-2293.307,-672.1707,-8223.69,-1660.469,-507.9669,0,0
44.76876,-10335.1,-2273.456,-618.4155,-8234.727,-1686.673,-438.1617,0,0
44.85172,-10371.18,-2307.99,-619.5634,-8266.634,-1741.347,-362.6198,0,0
44.90151,-10349.97,-2324.227,-612.0302,-8236.95,-1709.568,-479.9911,0,0
44.90151,-10327.17,-2306.449,-617.8539,-8228.335,-1659.631,-489.0058,0,0
44.95129,-10326.12,-2277.152,-628.1757,-8227.536,-1709.347,-385.9177,0,0
44.95129,-10338.81,-2279.786,-638.1733,-8237.23,-1697.803,-440.644,0,0
44.98448,-10320.71,-2303.109,-591.574,-8232.235,-1676.312,-448.9469,0,0
45.03426,-10334.62,-2270.067,-594.8013,-8238.438,-1648.904,-445.2229,0,0
45.03426,-10338.23,-2295.776,-588.8004,-8236.728,-1706.074,-420.0351,0,0
45.08405,-10369.01,-2284.115,-554.2332,-8264.623,-1702.393,-399.9578,0,0
45.11723,-10353.65,-2333.358,-603.4416,-8252.739,-1743.854,-433.3989,0,0
45.11723,-10330.06,-2339.412,-599.24,-8234.654,-1734.425,-460.2001,0,0
45.16702,-10331.74,-2319.825,-651.9259,-8231.525,-1717.918,-399.6419,0,0
45.2168,-10383.65,-2422.318,-549.1182,-8280.03,-1742.627,-423.9718,0,0
45.24998,-10312.01,-2285.787,-623.3637,-8211.854,-1650.534,-402.758,0,0
45.29977,-10307.58,-2302.993,-620.4993,-8213.026,-1691.833,-415.6074,0,0
45.29977,-10326.33,-2299.212,-541.7656,-8223.024,-1677.082,-389.0685,0,0
45.34955,-10328.49,-2281.355,-612.5709,-8220.288,-1674.886,-402.12,1,0
45.39933,-10314.25,-2262.07,-529.5738,-8218.323,-1649.202,-378.7091,1,0
45.39933,-10291.77,-2320.161,-565.1228,-8196.805,-1714.239,-411.1128,1,0
45.43224,-10314.24,-2331.091,-503.636,-8227.405,-1722.491,-373.6995,1,0
45.4823,-10363.18,-2308.477,-575.0168,-8251.492,-1710.646,-431.8167,1,0
45.4823,-10315.01,-2361.408,-540.8549,-8219.021,-1726.92,-343.6956,1,0
45.58186,-10279.13,-2300.563,-506.894,-8187.253,-1738.18,-319.6977,1,0
45.61505,-10315.94,-2304.694,-586.3876,-8219.98,-1706.38,-421.1723,1,0
45.61505,-10281.2,-2344.611,-556.5504,-8189.056,-1737.416,-548.7071,1,0
45.66483,-10311.98,-2352.714,-640.6032,-8212.713,-1697.484,-417.8803,1,0
45.71461,-10311.29,-2319.864,-521.446,-8212.214,-1688.694,-317.6433,1,0
45.71461,-10340.85,-2320.93,-487.1625,-8239.235,-1674.315,-299.0248,1,0
45.7478,-10343.71,-2304.451,-465.6035,-8232.457,-1673.711,-279.6717,1,0
45.79758,-10300.77,-2288.58,-414.7245,-8199.602,-1699.079,-180.9287,1,0
45.84737,-10284.57,-2316.932,-389.7607,-8196.196,-1714.412,-207.2104,1,0
45.88055,-10280.99,-2327.522,-431.6326,-8193.588,-1691.714,-281.3756,1,0
45.89715,-10280.23,-2307.919,-427.8452,-8193.137,-1689.207,-236.9992,1,0
45.98012,-10293.3,-2304.935,-403.1583,-8198.797,-1671.184,-249.3024,1,0
45.98012,-10322.08,-2292.33,-446.2221,-8225.251,-1673.831,-270.0974,1,0
46.02991,-10335.62,-2287.811,-382.6017,-8235.521,-1658.291,-225.8956,1,0
46.0631,-10314.56,-2298.205,-467.7345,-8210.479,-1681.309,-294.8978,1,0
46.0631,-10294.28,-2300.365,-489.5907,-8208.294,-1661.951,-368.6708,1,0
46.11288,-10324.79,-2280.083,-494.9308,-8222.769,-1676.179,-363.4296,1,0
46.11288,-10321.41,-2335.373,-571.6197,-8220.143,-1726.217,-391.6218,1,0
46.16266,-10316.04,-2382.381,-536.3198,-8216.01,-1727.874,-356.832,1,0
46.16266,-10313.98,-2365.665,-447.4597,-8209.992,-1748.935,-294.0911,1,0
46.19585,-10316.03,-2370.469,-502.6289,-8220.429,-1742.401,-415.0306,1,0
46.24564,-10300.73,-2358.606,-524.085,-8204.305,-1750.315,-329.2569,1,0
46.24564,-10323.89,-2371.131,-515.9496,-8222.034,-1749.457,-293.6289,1,0
46.29541,-10283.14,-2372.501,-385.6885,-8190.883,-1730.107,-269.0175,1,0
46.3452,-10289.32,-2354.236,-446.9965,-8195.722,-1725.187,-265.5021,1,0
46.37839,-10321.92,-2341.547,-447.8476,-8225.113,-1707.691,-267.7436,1,0
46.37839,-10308.91,-2330.384,-494.0645,-8210.688,-1683.677,-329.5102,1,0
46.42817,-10325.56,-2307.663,-469.2691,-8214.543,-1663.102,-297.7658,1,0
46.47795,-10308.53,-2326.438,-445.0201,-8219.227,-1690.903,-287.6189,1,0
46.47795,-10320.97,-2326.736,-411.9009,-8219.849,-1717.219,-229.7807,1,0
46.56092,-10320.3,-2304.778,-436.6258,-8214.868,-1700.448,-268.9033,1,0
46.6107,-10320.89,-2297.555,-478.9113,-8219.734,-1632.142,-365.0151,1,0
46.6107,-10325.69,-2300.892,-430.4499,-8223.369,-1643.51,-315.0995,1,0
46.66048,-10357.23,-2293.167,-398.9299,-8247.397,-1680.995,-227.6681,1,0
46.66048,-10344.44,-2305.348,-467.4622,-8228.61,-1666.289,-346.4793,1,0
46.71027,-10302.28,-2247.653,-522.8403,-8196.354,-1578.855,-414.0928,1,0
46.72685,-10268.82,-2223.221,-588.5988,-8188.635,-1480.563,-555.2902,1,0
46.74344,-10319.59,-2210.66,-582.8643,-8218.699,-1481.294,-573.9259,1,0
46.8762,-10358.1,-2216.268,-566.4313,-8256.936,-1558.442,-510.5066,1,0
46.89279,-10290.8,-2239.137,-562.7732,-8196.517,-1636.609,-371.5186,1,0
46.92598,-10292.29,-2274.697,-489.461,-8197.769,-1582.127,-443.9465,1,0
46.94257,-10278.95,-2257.472,-509.3509,-8187.677,-1576.016,-473.9728,1,0
46.97576,-10326.76,-2257.385,-546.5222,-8224.305,-1555.33,-500.4759,1,0
47.00895,-10280.51,-2252.816,-480.0631,-8197.805,-1522.667,-506.7508,1,0
47.00895,-10307.97,-2259.085,-476.941,-8209.997,-1531.574,-451.0303,1,0
47.05873,-10340.57,-2263.885,-416.537,-8243.753,-1550.656,-435.374,1,0
47.05873,-10355.19,-2281.938,-430.1886,-8245.909,-1593.906,-440.6836,1,0
47.10851,-10293.53,-2315.017,-394.4725,-8203.109,-1638.507,-320.736,1,0
47.1417,-10309.59,-2354.493,-243.2614,-8206.589,-1737.122,-123.7643,1,0
47.15829,-10312.28,-2411.765,-98.08389,-8208.681,-1796.418,-14.92233,1,0
47.19149,-10282.89,-2425.422,-71.79896,-8190.69,-1772.922,-40.46566,1,0
47.24127,-10281.42,-2415.67,-99.48682,-8185.261,-1742.18,-12.8722,1,0
47.24127,-10291.8,-2386.132,-53.09679,-8202.162,-1638.328,-32.71894,1,0
47.29105,-10270.45,-2368.552,-50.69952,-8181.483,-1627.586,-42.86004,1,0
47.32424,-10262.51,-2339.257,-95.0003,-8179.99,-1626.529,-79.36294,1,0
47.34083,-10255.98,-2370.622,-40.64729,-8170.712,-1708.399,-2.05534,1,0
47.37402,-10256.79,-2422.01,-179.6458,-8167.066,-1746.861,-79.46917,1,0
47.40721,-10228.68,-2447.733,-95.30531,-8141.324,-1708.508,-156.7122,1,0
47.42381,-10219.21,-2400.314,-69.51032,-8138.772,-1768.66,27.1455,1,0
47.45699,-10208.65,-2448.259,-34.78959,-8135.397,-1836.797,27.39771,1,0
47.50677,-10266.16,-2500.977,-88.57799,-8175.112,-1809.484,-117.7249,1,0
47.50677,-10261.13,-2478.402,-50.39802,-8166.857,-1801.422,-22.07596,1,0
47.55656,-10261.5,-2426.384,-34.19759,-8184.906,-1782.917,12.21385,1,0
47.60634,-10271.99,-2420.858,57.92753,-8188.479,-1791.233,81.41549,1,0
47.60634,-10291.31,-2444.75,46.86504,-8198.758,-1780.753,17.28032,1,0
47.63952,-10294.65,-2415.468,-38.32257,-8192.351,-1742.695,-46.67813,1,0
47.68931,-10306.28,-2415.1,-21.04554,-8205.581,-1740.448,33.3256,1,0
47.73909,-10315.17,-2415.574,-18.92445,-8212.246,-1717.526,-3.951689,1,0
47.73909,-10312.37,-2389.196,33.10827,-8209.964,-1695.485,31.05705,1,0
47.82206,-10303.85,-2405.697,77.17713,-8203.345,-1725.386,110.7872,1,0
47.87185,-10318.65,-2366.574,71.05757,-8223.431,-1717.698,121.7949,1,0
47.87185,-10311.72,-2323.144,82.17268,-8209.142,-1668.323,145.4641,1,0
47.92163,-10277.43,-2317.789,89.67682,-8187.323,-1666.758,151.6871,1,0
47.92163,-10299.56,-2327.974,98.26259,-8208.692,-1620.537,68.20914,1,0
47.95481,-10318.08,-2339.47,174.6699,-8227.217,-1679.503,76.05933,1,0
48.0046,-10377.55,-2336.031,72.70792,-8263.627,-1784.757,137.6031,1,0
48.0046,-10360.79,-2396.578,50.77043,-8250.508,-1750.006,-1.357178,1,0
48.05437,-10300.66,-2401.949,51.86909,-8195.529,-1731.534,29.43261,1,0
48.08757,-10321.76,-2273.602,42.17308,-8211.696,-1724.865,99.26556,1,0
48.10416,-10282.04,-2366.198,93.25074,-8190.208,-1748.113,38.66098,1,0
48.18713,-10319.98,-2362.88,71.08891,-8223.702,-1770.993,87.81406,1,0
48.23692,-10346.67,-2384.72,81.95589,-8239.581,-1767.62,52.73278,1,0
48.27011,-10321.01,-2359.842,92.65636,-8219.843,-1756.253,62.18786,1,0
48.27011,-10297,-2374.362,51.01403,-8201.482,-1768.128,84.82997,1,0
48.31989,-10318.45,-2387.788,134.7354,-8213.492,-1717.632,68.61793,1,0
48.31989,-10324.31,-2334.725,85.54014,-8213.513,-1685.439,93.44556,1,0
48.35307,-10315.43,-2314.704,56.7664,-8211.142,-1652.066,58.60197,1,0
48.35307,-10297,-2319.362,56.68903,-8197.071,-1696.616,73.2354,1,0
48.41945,-10290.73,-2349.195,129.9096,-8183.495,-1710.67,103.9034,1,0
48.50243,-10272.69,-2341.158,190.8013,-8178.696,-1759.958,169.5281,1,0
48.50243,-10265.85,-2369.968,149.6889,-8178.045,-1798.226,128.7919,1,0
48.53561,-10267.72,-2396.838,128.1922,-8179.617,-1780.036,88.02814,1,0
48.53561,-10311.15,-2388.24,138.9756,-8208.457,-1779.368,67.36143,1,0
48.58539,-10309.91,-2363.19,171.8299,-8211.898,-1781.97,133.0905,1,0
48.58539,-10312.5,-2402.75,122.1682,-8213.822,-1794.072,139.5003,1,0
48.63518,-10352.69,-2389.655,64.87881,-8244.447,-1721.846,-16.26957,1,0
48.68496,-10360.42,-2366.497,67.82072,-8241.282,-1720.526,79.09056,1,0
48.68496,-10324.56,-2340.078,185.2337,-8213.723,-1717.876,173.2248,1,0
48.76793,-10297.88,-2335.962,195.9706,-8202.194,-1728.703,166.3529,1,0
48.76793,-10290.22,-2349.891,183.6867,-8196.402,-1724.75,149.6983,1,0
48.81771,-10269.25,-2352.469,182.8527,-8176.043,-1749.767,169.5805,1,0
48.81771,-10285.96,-2347.246,197.7926,-8197.818,-1718.911,171.3,1,0
48.8675,-10298.27,-2338.101,218.759,-8198.407,-1706.743,184.537,1,0
48.90069,-10326.44,-2316.718,216.3709,-8219.936,-1682.503,180.4566,1,0
48.90069,-10363.88,-2338.252,124.336,-8252.861,-1692.771,173.6331,1,0
48.95047,-10357.83,-2291.948,156.7443,-8248.013,-1642.028,213.2958,1,0
48.95047,-10297.43,-2324.323,231.2302,-8192.862,-1673.698,214.3002,1,0
49.00025,-10299.61,-2281.142,210.6068,-8199.048,-1660.537,225.0973,1,0
49.03344,-10323.24,-2256.921,283.9485,-8208.287,-1653.093,279.4254,1,0
49.05003,-10315.9,-2263.709,235.2662,-8215.96,-1687.64,249.7787,1,0
49.133,-10320.65,-2299.195,238.8434,-8210.709,-1673.07,210.951,1,0
49.16619,-10339.88,-2313.627,198.951,-8234.237,-1662.309,191.397,1,0
49.18279,-10322.33,-2327.633,303.5864,-8216.31,-1680.285,256.5556,1,0
49.21597,-10309.7,-2329.218,273.2951,-8206.648,-1745.753,231.6514,1,0
49.21597,-10371.02,-2374.761,214.0968,-8253.492,-1767.079,197.3078,1,0
49.26575,-10373.44,-2344.272,232.1053,-8259.564,-1703.374,179.7519,1,0
49.2988,-10278.17,-2353.06,272.9403,-8182.214,-1764.328,252.1832,1,0
49.2988,-10305.56,-2327.526,88.84662,-8194.455,-1734.956,151.2887,1,0
49.34872,-10279.58,-2404.688,143.8345,-8174.712,-1711.276,112.7828,1,0
49.3985,-10274.62,-2415.198,115.7954,-8179.969,-1706.129,133.5178,1,0
49.3985,-10279.92,-2398.915,201.778,-8179.743,-1749.497,242.374,1,0
49.44828,-10307.58,-2347.723,199.6563,-8205.418,-1683.639,235.0536,1,0
49.44828,-10284.04,-2367.176,243.7717,-8191.877,-1674.754,194.9354,1,0
49.48148,-10332.47,-2349.351,216.2566,-8228.926,-1688.619,210.0997,1,0
49.53126,-10340.78,-2350.053,248.8347,-8235.152,-1675.915,189.1932,1,0
49.53126,-10315.49,-2339.298,180.6638,-8202.426,-1719.294,215.9975,1,0
49.58104,-10283.79,-2335.947,206.7303,-8191.533,-1700.942,240.8831,1,0
49.61423,-10272.24,-2344.095,219.0238,-8173.946,-1675.908,162.0884,1,0
49.63082,-10295.49,-2291.773,193.0907,-8187.416,-1650.169,136.8085,1,0
49.66401,-10290.35,-2342.107,157.2864,-8192.414,-1695.474,107.9768,1,0
49.76358,-10261,-2359.074,178.7146,-8170.057,-1726.429,165.6054,1,0
49.76358,-10251.8,-2390.422,210.7373,-8167.624,-1752.193,137.2292,1,0
49.79663,-10280.02,-2389.979,195.7258,-8184.9,-1785.704,160.4549,1,0
49.81336,-10289.98,-2434.189,248.9996,-8188.116,-1821.675,192.0185,1,0
49.84654,-10295.78,-2426.953,304.0276,-8192.56,-1851.19,266.553,1,0
49.89632,-10305.82,-2455.756,328.5301,-8209.076,-1862.509,306.995,1,0
49.89632,-10291.81,-2445.104,385.5386,-8193.884,-1813.76,252.2322,1,0
49.94611,-10332.25,-2440.717,267.7924,-8220.325,-1850.292,275.1704,1,0
49.94611,-10321.32,-2411.851,234.1751,-8216.278,-1751.222,221.882,1,0
49.97929,-10292.65,-2374.764,287.5401,-8189.864,-1708.232,260.6818,1,0
50.02908,-10284.65,-2339.814,284.9144,-8192.656,-1679.511,271.2209,1,0
50.07886,-10262.46,-2290.437,301.6418,-8162.47,-1632.42,275.7643,1,0
50.11205,-10261.66,-2312.484,263.901,-8170.878,-1674.922,232.6134,1,0
50.11205,-10290.38,-2304.334,219.7638,-8184.059,-1644.331,183.1187,1,0
50.16183,-10267.26,-2318.929,276.2292,-8166.424,-1681.284,238.8714,1,0
50.16183,-10260.51,-2410.564,356.5034,-8165.808,-1820.376,307.8246,1,0
50.21161,-10292.28,-2410.354,268.1933,-8194.596,-1810.18,247.7776,1,0
50.2448,-10327.58,-2373.446,257.6352,-8221.504,-1736.306,211.9947,1,0
50.2448,-10308.13,-2332.382,201.5152,-8202.056,-1671.442,177.2659,1,0
50.29459,-10333.05,-2300.68,227.2717,-8216.583,-1625.036,146.5099,1,0
50.39415,-10317.43,-2273.297,232.7909,-8200.09,-1665.159,201.9332,1,0
50.39415,-10295.88,-2244.515,186.6971,-8183.583,-1622.441,171.822,1,0
50.44393,-10286.6,-2208.932,208.2114,-8172.097,-1526.744,100.4175,1,0
50.47712,-10267.91,-2201.726,197.0932,-8162.338,-1533.267,67.61391,1,0
50.47712,-10381.32,-2254.988,82.65961,-8253.467,-1630.187,-22.94283,1,0
50.52691,-10427.49,-2131.116,165.9331,-8292.804,-1449.426,80.19071,1,0
50.5601,-10316.41,-2143.16,270.7014,-8203.101,-1513.75,317.773,1,0
50.57669,-10254.38,-2158.691,366.8021,-8155.759,-1581.305,319.4667,1,0
50.60988,-10241.65,-2231.825,346.3727,-8146.288,-1619.466,248.9498,1,0
50.60988,-10303.36,-2261.109,382.827,-8198.092,-1646.035,300.2245,1,0
50.65966,-10264.36,-2186.111,380.5466,-8163.883,-1598.413,197.7058,1,0
50.65966,-10261.59,-2271.724,345.0089,-8170.781,-1676.986,255.6498,1,0
50.70944,-10316.86,-2251.94,297.153,-8204.228,-1611.306,246.8324,1,0
50.74263,-10339.06,-2278.124,327.9496,-8225.524,-1612.771,271.3371,1,0
50.79096,-10370.7,-2253.736,368.637,-8245.077,-1583.602,355.9041,1,0
50.79096,-10322.25,-2244.793,470.556,-8207.836,-1607.886,445.4157,1,0
50.84219,-10270.42,-2251.25,526.0226,-8172.661,-1635.295,445.0981,1,0
50.87538,-10289.06,-2236.751,463.9362,-8191.471,-1644.411,374.6872,1,0
50.92517,-10293.55,-2259.22,381.8195,-8190.514,-1643.54,320.3882,1,0
50.92517,-10282.89,-2246.3,440.9131,-8182.413,-1630.845,350.1309,1,0
50.97495,-10252.39,-2262.058,442.3105,-8154.777,-1669.737,336.4861,1,0
51.12429,-10262.45,-2290.602,399.4731,-8162.65,-1711.067,371.115,1,0
51.12429,-10320.69,-2314.217,459.0013,-8211.668,-1656.547,346.5536,1,0
51.20725,-10347.02,-2239.067,422.1977,-8227.222,-1613.979,327.6199,1,0
51.24044,-10312.2,-2235.393,438.6036,-8204.88,-1661.968,431.9819,1,0
51.24044,-10292.83,-2273.245,491.5383,-8194.474,-1646.272,439.8958,1,0
51.29023,-10272.7,-2296.628,482.7134,-8165.835,-1668.783,407.5009,1,0
51.29023,-10337.31,-2259.434,443.1733,-8228.576,-1605.632,327.1525,1,0
51.34001,-10341.97,-2220.043,507.9225,-8231.969,-1577.875,393.1767,1,0
51.34001,-10333.32,-2245.561,431.8687,-8220.766,-1619.74,427.8784,1,0
51.42298,-10323.52,-2218.964,490.3703,-8208.754,-1557.4,347.9978,1,0
51.47276,-10371.88,-2157.091,483.3726,-8245.625,-1548.637,391.2902,1,0
51.47276,-10345.59,-2220.566,577.2601,-8220.901,-1679.438,539.4921,1,0
51.50595,-10299.98,-2317.295,552.6372,-8190.426,-1737.667,520.2821,1,0
51.50595,-10225.78,-2317.121,494.1714,-8129.439,-1713.572,370.9986,1,0
51.55574,-10260.34,-2340.428,489.5316,-8160.624,-1679.528,351.6643,1,0
51.55574,-10316.54,-2274.205,453.7294,-8203.711,-1676.354,420.2084,1,0
51.60552,-10335.08,-2257.284,388.7482,-8213.381,-1634.274,361.155,1,0
51.60552,-10314.68,-2301.56,429.0847,-8206.565,-1642.924,327.3764,1,0
51.6553,-10306.1,-2259.372,441.1008,-8191.119,-1679.063,415.1287,1,0
51.73827,-10330.85,-2254.866,429.5943,-8218.898,-1650.372,392.4566,1,0
51.73827,-10319.9,-2258.409,476.5277,-8214.87,-1655.877,395.9168,1,0
51.78759,-10294.6,-2267.063,430.3565,-8191.077,-1688.523,416.2676,1,0
51.78759,-10317.43,-2262.059,461.4345,-8208.566,-1658.308,382.9252,1,0
51.83739,-10368.45,-2256.65,415.9612,-8247.477,-1635.903,374.5222,1,0
51.87058,-10320.46,-2275.013,393.0295,-8201.756,-1624.504,327.2202,1,0
51.87058,-10316.47,-2266.331,432.4117,-8198.715,-1663.064,412.0961,1,0
51.92038,-10283.15,-2269.238,424.2368,-8173.292,-1647.529,380.8843,1,0
51.92038,-10272.7,-2292.795,392.6323,-8174.32,-1665.513,326.8954,1,0
51.97017,-10273.64,-2278.778,410.2497,-8175.188,-1652.233,349.7117,1,0
51.97017,-10286.62,-2310.686,458.8614,-8171.935,-1706.758,423.2146,1,0
52.01996,-10306.39,-2270.239,442.9606,-8191.546,-1652.413,398.1729,1,0
52.01996,-10260.47,-2278.503,445.8824,-8160.927,-1649.328,378.7441,1,0
52.05315,-10287.05,-2257.319,447.6088,-8176.949,-1647.847,384.4799,1,0
52.10295,-10270.58,-2309.42,437.5692,-8164.425,-1713.43,373.4647,1,0
52.10295,-10272.18,-2306.244,374.8743,-8174.624,-1693.905,338.9228,1,0
52.13614,-10298.9,-2307.769,365.285,-8195.093,-1681.089,272.0103,1,0
52.13614,-10369.92,-2281.239,359.8669,-8244.837,-1644.958,275.1726,1,0
52.18594,-10327.94,-2278.003,380.3713,-8208.062,-1687.131,354.3072,1,0
52.20253,-10288.6,-2294.743,384.5516,-8182.375,-1732.826,319.0825,1,0
52.23573,-10306.66,-2316.254,365.4852,-8200.651,-1717.5,299.4088,1,0
52.28552,-10362.72,-2292.158,340.6745,-8234.556,-1688.14,297.2985,1,0
52.28552,-10349.68,-2290.693,316.0549,-8233.242,-1653.757,306.7236,1,0
52.33531,-10325.24,-2265.529,356.7706,-8205.557,-1606.906,322.2664,1,0
52.3685,-10282.96,-2263.107,388.72,-8177.68,-1613.294,357.834,1,0
52.3851,-10280.57,-2255.997,513.3809,-8175.985,-1640.167,440.4707,1,0
52.41829,-10269.43,-2263.396,493.0406,-8167.598,-1692.73,400.6268,1,0
52.45149,-10296.4,-2292.527,385.7619,-8183.901,-1687.789,335.5965,1,0
52.45149,-10271.26,-2310.813,460.142,-8160.316,-1701.388,324.6129,1,0
52.50128,-10288.8,-2305.565,361.9473,-8178.276,-1766.2,327.7099,1,0
52.55107,-10304.82,-2351.591,385.5333,-8190.551,-1757.313,332.2999,1,0
52.55107,-10286.5,-2331.164,404.6416,-8180.982,-1721.746,315.9469,1,0
52.60086,-10293.62,-2317.061,429.8569,-8177.598,-1736.86,310.336,1,0
52.63406,-10305.46,-2307.435,334.7409,-8191.101,-1746.266,304.7735,1,0
52.65066,-10279.21,-2323.365,357.3138,-8166.606,-1694.6,235.5491,1,0
52.68385,-10312.62,-2322.545,382.1874,-8196.62,-1724.684,234.6317,1,0
52.73364,-10317.81,-2329.973,366.2181,-8204.953,-1761.279,263.6598,1,0
52.73364,-10294.19,-2377.742,339.8844,-8186.839,-1792.023,236.5308,1,0
52.78344,-10291.41,-2356.619,336.0157,-8180.304,-1730.147,161.5642,1,0
52.86642,-10319.68,-2325.74,318.9376,-8197.484,-1780.964,277.1744,1,0
52.86642,-10311.71,-2364.493,399.8634,-8204.63,-1797.38,279.2747,1,0
52.89962,-10322.66,-2376.796,436.8759,-8195.201,-1852.217,377.8298,1,0
52.94941,-10379.64,-2428.359,382.3682,-8256.36,-1865.17,374.3816,1,0
52.94941,-10425.03,-2353.585,542.3869,-8290.705,-1755.278,441.7897,1,0
52.9992,-10391.04,-2268.318,522.4144,-8255.445,-1717.041,488.7635,1,0
53.04899,-10331.65,-2224.906,491.2342,-8209.866,-1619.35,417.2396,1,0
53.04899,-10314.48,-2223.788,536.913,-8196.77,-1583.583,366.1835,0,0
53.08218,-10331.12,-2234.661,495.2964,-8205.109,-1655.035,421.089,0,0
53.13198,-10353.02,-2212.16,407.4126,-8230.703,-1643.715,415.4717,0,0
53.13198,-10379.17,-2191.684,496.1,-8246.134,-1536.77,382.5718,0,0
53.18177,-10352.02,-2144.774,521.6871,-8234.104,-1600.712,548.7166,0,0
53.21447,-10343.85,-2196.47,547.48,-8210.064,-1646.757,568.3798,0,0
53.23107,-10316.58,-2200.947,523.1115,-8193.695,-1592.517,492.1117,0,0
53.28082,-10313.02,-2175.256,552.9929,-8191.077,-1550.233,470.8367,0,0
53.31401,-10277.89,-2149.98,503.1444,-8159.935,-1580.664,449.0975,0,0
53.31401,-10304.15,-2130.466,430.9829,-8184.646,-1577.769,414.6679,0,0
53.36378,-10288.83,-2144.155,473.436,-8186.349,-1562.56,410.917,0,0
53.39696,-10269.22,-2155.026,467.2717,-8167.061,-1562.889,375.4994,0,0
53.41355,-10300.07,-2156.682,372.7021,-8181.938,-1600.713,332.788,0,0
53.44673,-10323.72,-2207.97,369.2268,-8195.633,-1624.236,301.7343,0,0
53.4965,-10309.82,-2217.1,386.899,-8193.863,-1635.896,330.0608,0,0
53.52968,-10342.82,-2232.609,349.0713,-8219.075,-1655.981,313.3823,0,0
53.54627,-10362.01,-2245.632,324.5106,-8242.474,-1630.339,252.6348,0,0
53.57944,-10323.22,-2239.198,372.7122,-8199.382,-1659.958,302.6895,0,0
53.62922,-10326.79,-2232.935,368.0999,-8210.978,-1654.215,333.7614,0,0
53.62922,-10321.24,-2207.392,394.2805,-8211.146,-1618.009,293.2569,0,0
53.71217,-10335.76,-2211.853,374.5364,-8222.214,-1645.84,352.3131,0,0
53.72876,-10354.13,-2213.197,358.9014,-8222.879,-1587.297,282.2898,0,0
53.76194,-10346.78,-2166.269,428.5198,-8217.168,-1545.214,295.2496,0,0
53.76194,-10306.9,-2181.988,393.0754,-8195.523,-1634.771,391.4871,0,0
53.81171,-10297.05,-2211.814,388.0075,-8188.089,-1642.883,314.6838,0,0
53.84489,-10329.14,-2211.315,379.1534,-8212.69,-1605.885,299.1597,0,0
53.86148,-10299.21,-2237.3,415.0505,-8180.951,-1653.999,350.2415,0,0
53.89466,-10317.12,-2233.008,421.9675,-8203.596,-1680.221,369.857,0,0
53.94443,-10310.1,-2251.798,360.4242,-8193.814,-1653.404,285.097,0,0
53.94443,-10341.43,-2228.908,374.4066,-8208.914,-1649.094,326.1736,0,0
54.04397,-10314.15,-2253.24,433.6288,-8196.897,-1674.808,375.3271,0,0
54.07715,-10337.11,-2241.739,428.986,-8218.886,-1677.776,386.012,0,0
54.07715,-10337.26,-2228.368,431.4503,-8218.927,-1637.254,366.9537,0,0
54.12691,-10340.55,-2231.689,441.1102,-8212.512,-1636.749,380.3078,0,0
54.12691,-10348.88,-2218.008,393.57,-8227.685,-1635.998,377.38,0,0
54.1601,-10354.85,-2204.171,437.8274,-8218.859,-1596.664,402.55,0,0
54.20987,-10338.04,-2184.176,432.5437,-8214.813,-1574.345,359.5694,0,0
54.20987,-10316.09,-2206.094,391.8283,-8202.461,-1616.499,358.6303,0,0
54.25964,-10286.75,-2205.197,412.206,-8166.821,-1623.902,359.2754,0,0
54.25964,-10281.81,-2223.089,408.2646,-8172.106,-1632.609,325.7983,0,0
54.34259,-10327.03,-2206.465,423.7049,-8202.354,-1661.714,364.5285,0,0
54.39236,-10354.6,-2199.891,406.7815,-8227.82,-1635.041,350.7314,0,0
54.39236,-10305.28,-2248.179,387.3799,-8185.613,-1666.387,301.8805,0,0
54.44213,-10308.5,-2228.819,378.9599,-8197.019,-1659.215,352.1234,0,0
54.47531,-10335.01,-2229.893,397.552,-8212.861,-1622.017,280.2415,0,0
54.52508,-10339.32,-2222.474,352.6668,-8220.536,-1636.585,291.5737,0,0
54.52508,-10356.2,-2223.653,346.0725,-8220.051,-1660.19,295.6274,0,0
54.57485,-10362.37,-2233.909,428.048,-8224.658,-1635.279,348.436,0,0
54.57485,-10284.91,-2215.922,435.1337,-8165.417,-1651.994,370.0757,0,0
54.6578,-10232,-2235.351,461.5031,-8138.521,-1689.795,374.8109,0,0
54.70757,-10295.97,-2229.804,429.4568,-8178.833,-1662.433,324.1061,0,0
54.75734,-10339.11,-2203.259,406.1358,-8207.417,-1656.797,364.7359,0,0
54.75734,-10305.52,-2218.907,400.6389,-8181.696,-1677.903,360.4934,0,0
54.79052,-10309.15,-2253.836,388.5064,-8193.386,-1693.981,331.2714,0,0
54.80711,-10342.49,-2254.895,362.8851,-8209.989,-1681.885,309.8486,0,0
54.84029,-10369.5,-2256.583,340.0122,-8239.381,-1668.097,245.7519,0,0
54.84029,-10348.59,-2255.909,361.0871,-8214.346,-1698.243,340.8344,0,0
54.89006,-10352.59,-2237.857,420.6471,-8230.614,-1695.403,402.1307,0,0
55.02278,-10311.75,-2227.845,434.112,-8199.317,-1653.063,377.8447,0,0
55.02278,-10323.29,-2202.12,375.4532,-8203.745,-1655.352,376.1015,0,0
55.07255,-10344.42,-2218.37,360.798,-8219.882,-1622.149,323.07,0,0
55.10574,-10332.32,-2195.29,413.3826,-8192.855,-1622.377,408.2025,0,0
55.12233,-10316.08,-2188.983,452.8889,-8193.776,-1641.536,469.4652,0,0
55.17209,-10329.03,-2198.23,440.6715,-8217.005,-1646.212,473.0438,0,0
55.17209,-10333.49,-2167.539,433.0925,-8202.649,-1585.187,368.0576,0,0
55.20527,-10339.11,-2172.05,424.6679,-8215.793,-1592.215,402.5736,0,0
55.28857,-10333.61,-2186.514,463.1796,-8215.983,-1631.991,438.5201,0,0
55.28857,-10343.69,-2192.668,405.1391,-8210.355,-1646.724,399.2299,0,0
55.38813,-10357.07,-2178.484,448.1585,-8220.53,-1609.876,373.6199,0,0
55.38813,-10339.29,-2163.694,381.9753,-8206.877,-1598.434,346.5985,0,0
55.42132,-10356.53,-2203.854,338.193,-8228.889,-1650.305,361.8072,0,0
55.4711,-10365.53,-2187.018,392.15,-8231.238,-1615.246,334.513,0,0
55.48769,-10389.38,-2185.725,343.6915,-8244.9,-1612.942,331.9938,0,0
55.60384,-10304.38,-2182.926,419.5447,-8179.846,-1634.968,411.1649,0,0
55.62043,-10284.66,-2162.144,367.0215,-8164.962,-1596.967,338.8067,0,0
55.65362,-10296.76,-2184.159,409.2617,-8178.86,-1630.257,308.8844,0,0
55.7034,-10329.72,-2190.825,351.0175,-8208.589,-1693.512,352.0524,0,0
55.7034,-10299.3,-2209.191,370.9098,-8176.5,-1718.461,511.6534,0,0
55.73658,-10334.69,-2162.693,337.717,-8199.212,-1619.041,310.1638,0,0
55.75318,-10265.66,-2178.641,215.8442,-8150.941,-1562.095,193.3059,0,0
55.78636,-10354.14,-2106.446,201.3907,-8227.589,-1571.717,245.3437,0,0
55.78636,-10368.37,-2144.051,225.2418,-8229.447,-1596.3,223.7033,0,0
55.83614,-10346.36,-2170.779,294.5264,-8221.349,-1638.168,262.4339,0,0
55.83614,-10362.23,-2190.625,267.9304,-8224.525,-1664.924,214.67,0,0
55.88592,-10312.48,-2151.158,216.2411,-8186.44,-1675.663,214.0815,0,0
55.91911,-10317.76,-2168.19,132.0647,-8190.562,-1640.146,90.44787,0,0
55.91911,-10333.17,-2187.52,112.5213,-8206.817,-1597.847,81.64127,0,0
55.96888,-10388.8,-2125.276,136.5555,-8244.841,-1533.77,144.5639,0,0
55.96888,-10395.53,-2076.554,194.167,-8254.195,-1528.751,236.4363,0,0
56.01866,-10349.28,-2086.43,204.8521,-8209.8,-1538.076,234.4967,0,0
56.05185,-10289.8,-2099.444,235.617,-8164.394,-1536.417,196.6136,0,0
56.06844,-10306.23,-2123.927,253.2691,-8186.02,-1569.488,206.0575,0,0
56.06844,-10318.48,-2161.545,258.3396,-8186.625,-1656.744,265.647,0,0
56.10163,-10335.64,-2158.372,251.7963,-8204.231,-1641.122,276.6175,0,0
56.15141,-10289.29,-2207.211,365.3338,-8173.275,-1686.59,293.6699,0,0
56.15141,-10305.64,-2248.341,317.0736,-8185.915,-1761.43,221.8466,0,0
56.18459,-10343.1,-2244.151,204.4058,-8214.587,-1774.314,184.5251,0,0
56.20118,-10351.68,-2262.353,218.2071,-8212.205,-1752.262,139.9355,0,0
56.23437,-10314.33,-2280.46,145.6178,-8188.045,-1770.083,132.7471,0,0
56.25095,-10345.75,-2306.908,118.4282,-8216.524,-1751.035,183.6137,0,0
56.28415,-10322.06,-2230.942,248.5764,-8198.367,-1635.293,171.1329,0,0
56.33392,-10289.35,-2218.8,219.138,-8173.427,-1671.762,212.9699,0,0
56.33392,-10316.94,-2180.235,200.2322,-8199.064,-1660.029,220.9897,0,0
56.36711,-10327.72,-2162.483,213.06,-8202.883,-1629.121,243.0052,0,0
56.3837,-10309.58,-2212.131,271.9685,-8184.586,-1664.989,238.9082,0,0
56.41689,-10323.33,-2229.605,269.7765,-8186.286,-1709.328,270.8694,0,0
56.46666,-10380.05,-2216.865,274.0925,-8238.467,-1727.975,319.9337,0,0
56.46666,-10367.71,-2214.365,255.9516,-8224.401,-1712.069,242.0864,0,0
56.49985,-10331.32,-2218.703,249.4601,-8205.351,-1735.78,270.0331,0,0
56.49985,-10332.24,-2319.79,207.6096,-8210.485,-1788.978,298.3647,0,0
56.54963,-10390.44,-2309.073,253.6083,-8250.466,-1730.205,301.8413,0,0
56.59941,-10389.8,-2238.316,247.2373,-8254.181,-1706.124,306.2333,0,0
56.64919,-10325.95,-2213.202,162.9353,-8200.81,-1641.507,213.7718,0,0
56.64919,-10310.64,-2196.036,251.9384,-8189.19,-1636.055,372.257,0,0
56.68238,-10355.05,-2221.988,350.8042,-8223.207,-1700.38,391.7448,0,0
56.73216,-10371.06,-2203.646,280.9707,-8222.071,-1714.057,309.9368,0,0
56.73216,-10360.12,-2206.356,292.4036,-8222.502,-1695.901,293.5963,0,0
56.78194,-10467.85,-2220.179,81.47391,-8304.677,-1718.667,24.74136,0,0
56.78194,-10380.73,-2163.329,-41.40543,-8237.713,-1584.376,-4.13096,0,0
56.83171,-10359.29,-2156.17,32.99804,-8225.697,-1623.319,28.90765,0,0
56.8649,-10374.46,-2143.059,83.52728,-8241.716,-1656.222,127.0034,0,0
56.8649,-10354.53,-2196.144,110.3159,-8222.007,-1703.298,155.6034,0,0
57.04742,-10282.97,-2285.31,190.0676,-8162.981,-1754.691,70.48242,0,0
57.06402,-10316.76,-2190.245,-28.85067,-8189.08,-1798.925,-14.96869,0,0
57.08061,-10346.87,-2246.048,-158.7296,-8212.208,-1674.309,-261.9704,0,0
57.09721,-10376.78,-2233.687,-257.5428,-8239.485,-1635.49,-265.4545,0,0
57.14698,-10358.77,-2258.34,-169.8487,-8216.767,-1661.322,-115.1746,0,0
57.14698,-10304.81,-2218.266,44.81024,-8175.564,-1703.817,94.20826,0,0
57.18017,-10291.19,-2206.453,129.7119,-8174.231,-1740.736,211.5502,0,0
57.19676,-10353.54,-2203.607,172.4819,-8217.597,-1644.586,79.16847,0,0
57.22995,-10350.14,-2203.249,107.4031,-8223.82,-1672.979,108.7205,0,0
57.27973,-10319.4,-2189.605,76.68925,-8191.452,-1651.272,132.7539,0,0
57.27973,-10298.04,-2260.642,82.76856,-8175.246,-1644.422,23.1609,0,0
57.31291,-10293.57,-2242.086,113.0821,-8176.427,-1671.785,107.6236,0,0
57.32951,-10340.06,-2224.225,92.29606,-8212.07,-1712.951,137.3053,0,0
57.36269,-10369.52,-2214.665,96.02602,-8230.093,-1674.547,114.7945,0,0
57.37928,-10332.22,-2212.985,118.5691,-8205.911,-1659.169,121.659,0,0
57.41247,-10260.54,-2230.08,80.46331,-8142.344,-1602.49,38.41788,0,0
57.46258,-10309.68,-2183.514,67.82783,-8184.586,-1646.024,97.31482,0,0
57.46258,-10336.56,-2231.389,127.3422,-8200.746,-1684.086,95.12262,0,0
57.47917,-10324.53,-2253.814,134.4119,-8195.967,-1737.138,184.6044,0,0
57.54554,-10302.05,-2272.038,164.9321,-8174.386,-1727.281,153.5837,0,0
57.54554,-10298.93,-2262.043,141.9982,-8172.11,-1691.459,100.3549,0,0
57.59533,-10286.22,-2265.533,118.886,-8162.515,-1694.306,115.8715,0,0
57.62851,-10307.83,-2223.297,108.5544,-8183.582,-1681.079,139.2274,0,0
57.67829,-10311.81,-2239.79,161.8051,-8186.655,-1631.94,111.1128,0,0
57.67829,-10328.58,-2221.108,136.8282,-8203.903,-1688.682,137.9021,0,0
57.72807,-10340.61,-2198.092,169.4062,-8213.028,-1697.983,91.75642,0,0
57.76125,-10346.39,-2227.404,56.45562,-8204.042,-1708.481,89.94237,0,0
57.77784,-10352.71,-2235.381,76.30954,-8226.515,-1659.4,75.3703,0,0
57.81103,-10352.05,-2236.618,94.11835,-8217.011,-1664.818,81.36401,0,0
57.91058,-10325.84,-2239.684,138.6805,-8183.608,-1659.703,106.3264,0,0
57.94376,-10277.04,-2230.255,173.2259,-8168.56,-1677.18,97.72659,0,0
57.96036,-10298.94,-2342.236,96.72314,-8172.155,-1775.955,-7.593387,0,0
57.99354,-10266.35,-2219.088,-17.95258,-8147.381,-1679.005,-65.20182,0,0
57.99354,-10339.55,-2262.357,37.20147,-8207.906,-1678.041,-72.87422,0,0
58.02673,-10342.59,-2278.209,37.35761,-8210.124,-1761.846,14.39521,0,0
58.07651,-10288.79,-2325.503,101.087,-8168.959,-1829.552,106.1867,0,0
58.0931,-10237.46,-2350.26,236.5767,-8129.892,-1935.496,403.6053,0,0
58.12628,-10228.91,-2402.936,291.4504,-8132.53,-1968.072,463.2395,0,0
58.17606,-10277.75,-2489.051,384.5665,-8165.665,-1902.822,373.8527,0,0
58.17606,-10181.34,-2484.808,413.5722,-8087.713,-1963.625,371.6472,0,0
58.22584,-10220.72,-2359.906,245.7388,-8122.646,-1805.161,249.162,0,0
58.25902,-10242.18,-2369.185,282.3763,-8139.258,-1761.184,231.1506,0,0
58.25902,-10288.26,-2290.079,170.7938,-8170.132,-1691.373,212.4353,0,0
58.3088,-10332.89,-2281.27,216.3085,-8204.145,-1625.973,194.025,0,0
58.35858,-10313.29,-2174.059,267.5347,-8175.663,-1592.494,279.6194,0,0
58.35858,-10304.68,-2179.076,208.6481,-8182.294,-1565.173,182.271,0,0
58.39177,-10301.92,-2143.361,187.3332,-8171.248,-1575.974,230.0237,0,0
58.44154,-10300.06,-2167.832,172.9169,-8174.228,-1572.596,161.3934,0,0
58.44154,-10267.97,-2220.097,235.7552,-8149.689,-1603.058,204.8176,0,0
58.49132,-10315.74,-2234.877,250.0853,-8186.246,-1744.808,491.5177,0,0
58.5245,-10343.62,-2315.633,330.344,-8198.564,-1777.566,400.5418,0,0
58.54109,-10280.86,-2252.864,317.6212,-8150.477,-1680.593,214.8884,0,0
58.57428,-10289.54,-2267.308,168.6935,-8166.052,-1701.933,209.1,0,0
58.62405,-10298.17,-2262.58,186.652,-8172.653,-1663.41,139.6673,0,0
58.67383,-10293.24,-2217.659,132.7138,-8168.873,-1651.912,155.5854,0,0
58.67383,-10340.2,-2207.951,172.9782,-8200.294,-1659.649,157.5999,0,0
58.70702,-10374.05,-2183.042,120.4827,-8230.4,-1620.593,161.7952,0,0
58.75679,-10336.98,-2222.135,141.7458,-8206.247,-1686.734,213.5062,0,0
58.75679,-10362.67,-2220.747,177.0295,-8225.731,-1713.402,329.4538,0,0
58.80657,-10310.9,-2256.647,273.3172,-8181.576,-1703.39,299.4154,0,0
58.85635,-10228.37,-2205.693,193.4535,-8114.173,-1679.927,220.384,0,0
58.88953,-10308.96,-2272.018,232.6831,-8180.463,-1653.375,108.0145,0,0
58.88953,-10292.13,-2318.156,142.4265,-8176.47,-1761.986,96.09842,0,0
58.93931,-10283.57,-2269.128,26.26827,-8156.679,-1720.344,96.73326,0,0
58.98909,-10272.94,-2247.1,70.59499,-8144.233,-1729.178,104.5822,0,0
59.02227,-10282.39,-2246.038,58.22139,-8156.009,-1667.924,70.08183,0,0
59.03887,-10306.99,-2192.571,-6.458279,-8174.863,-1582.878,25.90056,0,0
59.07205,-10314.75,-2176.592,9.160813,-8180.757,-1558.869,42.64298,0,0
59.12133,-10329.18,-2156.438,30.28895,-8191.711,-1561.354,65.10954,0,0
59.12133,-10354.07,-2142.162,46.77685,-8215.041,-1552.531,126.8098,0,0
59.17107,-10380.59,-2102.615,72.03139,-8230.651,-1518.608,116.3341,0,0
59.20425,-10325.79,-2093.821,127.2723,-8188.554,-1505.781,94.63548,0,0
59.25401,-10299.06,-2115.571,37.57472,-8172.557,-1556.417,58.87811,0,0
59.25401,-10284.67,-2102.6,79.19419,-8152.775,-1542.114,74.0503,0,0
59.30376,-10306.22,-2103.078,25.60224,-8173.793,-1531.457,29.13108,0,0
59.33694,-10360.01,-2125.167,58.03794,-8223.74,-1534.789,50.07731,0,0
59.35352,-10288.37,-2120.208,138.5293,-8159.99,-1574.439,227.4726,0,0
59.38669,-10271.8,-2109.714,191.959,-8151.892,-1577.08,237.3921,0,0
59.43645,-10303.43,-2129.599,248.8846,-8171.76,-1552.23,196.4363,0,0
59.43645,-10310.92,-2138.403,176.0411,-8181.934,-1549.94,173.8771,0,0
59.48621,-10320.91,-2126.787,148.5729,-8180.683,-1550.592,189.5327,0,0
59.51938,-10358.69,-2146.24,137.1207,-8213.923,-1578.294,115.5416,0,0
59.56913,-10344.07,-2165.233,100.4513,-8211.441,-1621.04,135.229,0,0
59.61889,-10361.98,-2165.691,25.86906,-8216.122,-1607.127,78.37003,0,0
59.61889,-10344.34,-2166.019,89.05136,-8202.5,-1567.126,86.51247,0,0
59.65206,-10317.22,-2137.613,50.03447,-8190.581,-1558.744,107.2944,0,0
59.66865,-10341.34,-2140.146,103.8009,-8204.581,-1541.93,82.59887,0,0
59.70182,-10353.1,-2104.122,73.91968,-8209.057,-1549.159,133.2822,0,0
59.78475,-10343.13,-2129.764,148.2187,-8201.354,-1555.594,148.4924,0,0
59.80134,-10316.13,-2122.58,114.279,-8185.131,-1578.984,150.4008,0,0
59.88427,-10309.31,-2148.272,138.9278,-8171.11,-1580.065,104.06,0,0
59.88427,-10321.93,-2167.896,124.4797,-8194.134,-1606.089,129.0225,0,0
59.93402,-10328.49,-2168.852,145.7702,-8194.711,-1614.166,144.6834,0,0
59.9672,-10293.47,-2144.982,80.09568,-8167.967,-1604.395,90.56248,0,0
59.9672,-10309.68,-2178.437,88.67603,-8176.035,-1602.188,78.71611,0,0
60.01695,-10318.13,-2160.014,55.39339,-8191.408,-1613.772,111.6215,0,0
60.01695,-10323.26,-2192.058,84.05132,-8186.456,-1564.201,45.28042,0,0
60.06671,-10303.96,-2178.439,218.475,-8162.86,-1610.272,209.0232,0,0
60.06671,-10326.98,-2142.707,153.9207,-8193.819,-1620.005,206.9142,0,0
60.11647,-10342.89,-2155.658,132.0721,-8205.932,-1598.003,126.815,0,0
