Time,Ax,Ay,Az,Gx,Gy,Gz,Breathing,Ground Truth
6.421264,0,0,0,0,0,0,0,0
6.421264,-15924,-3988,-1212,-3152,-197,71,0,0
6.520803,-15888,-4052,-812,-3168,-163,-160,0,0
6.520803,-16044,-3884,-1040,-3136,-121,180,0,0
6.520803,-15820,-4092,-1124,-3120,-36,313,0,0
6.520803,-15748,-4084,-1080,-3120,210,72,0,0
6.520803,-15892,-4112,-1008,-3136,98,412,0,0
6.520803,-15896,-3980,-988,-3152,-26,545,0,0
6.520803,-15820,-3960,-1308,-3152,159,583,0,0
6.570571,-15964,-4280,-796,-3168,57,214,0,0
6.587162,-15980,-4072,-1184,-3120,-355,425,0,0
6.653521,-15936,-4048,-1296,-3088,-79,44,0,0
6.653521,-15936,-4028,-1068,-3136,-94,240,0,0
6.686702,-15924,-3960,-1052,-3120,-202,250,0,0
6.686702,-15864,-3996,-1272,-3120,-30,-32,0,0
6.736467,-16000,-4148,-1264,-3104,-26,566,0,0
6.736467,-15900,-4208,-1308,-3136,75,-45,0,0
6.769649,-15868,-4204,-816,-3136,32,179,0,0
6.819417,-16072,-3960,-1080,-3120,-351,355,0,0
6.869188,-15992,-3820,-1632,-3104,-223,261,0,0
6.869188,-15820,-4080,-1208,-3120,225,-132,0,0
6.918955,-15892,-4092,-1020,-3120,-67,126,0,0
6.918955,-16000,-3960,-1252,-3120,-135,202,0,0
6.968724,-16004,-4036,-1396,-3088,-79,294,0,0
7.001905,-15844,-3952,-1264,-3104,-10,166,0,0
7.001905,-15904,-4008,-1060,-3104,-1,242,0,0
7.051672,-16020,-3980,-1288,-3120,-148,279,0,0
7.051672,-15908,-4096,-1196,-3104,-219,174,0,0
7.101442,-15900,-4200,-1204,-3120,-13,189,0,0
7.101442,-15908,-3908,-1236,-3088,-107,159,0,0
7.134621,-15976,-3916,-1240,-3136,-25,147,0,0
7.184384,-15900,-4056,-1068,-3136,-89,244,0,0
7.184384,-15892,-3924,-1256,-3136,-60,330,0,0
7.234155,-15872,-3996,-1080,-3136,-34,112,0,0
7.234155,-15928,-3952,-1236,-3088,-110,224,0,0
7.267336,-15972,-3972,-1176,-3152,-84,144,0,0
7.283922,-15900,-3908,-1216,-3088,-223,145,0,0
7.333688,-15992,-4032,-1316,-3120,-196,247,0,0
7.366868,-15928,-4028,-1228,-3104,-207,389,0,0
7.366868,-15884,-4072,-1344,-3120,-43,-2,0,0
7.416633,-15920,-3984,-1120,-3104,-17,134,0,0
7.416633,-16072,-3880,-1216,-3120,-21,96,0,0
7.449814,-15928,-4100,-948,-3136,86,28,0,0
7.466402,-15864,-4128,-916,-3120,-193,308,0,0
7.516171,-15924,-3864,-1380,-3104,-264,404,0,0
7.516171,-15836,-4036,-1200,-3072,43,-190,0,0
7.549348,-15876,-4092,-1016,-3072,-152,12,0,0
7.582527,-16020,-3864,-1384,-3120,-167,276,0,0
7.599116,-15916,-4000,-1376,-3072,51,12,0,0
7.632293,-15908,-4208,-1148,-3072,107,67,0,0
7.64888,-15864,-4044,-1052,-3104,-96,462,0,0
7.682059,-16016,-4296,-1160,-3104,-257,898,0,0
7.682059,-15928,-3868,-1344,-3088,-161,589,0,0
7.731827,-15968,-4016,-1416,-3136,-134,339,0,0
7.765004,-15856,-4004,-1216,-3120,-63,196,0,0
7.781593,-15968,-4036,-1140,-3088,-188,235,0,0
7.814772,-16028,-3924,-1412,-3104,-138,372,0,0
7.83136,-15892,-4004,-1228,-3056,-47,174,0,0
7.864541,-15976,-3996,-1296,-3104,-217,127,0,0
7.914312,-15972,-3940,-1320,-3088,-266,302,0,0
7.914312,-15924,-4012,-1244,-3104,-198,-37,0,0
7.964079,-15840,-4028,-1108,-3088,-366,-182,0,0
7.964079,-15864,-4008,-1172,-3104,-450,-166,0,0
7.99726,-15972,-3904,-1204,-3088,-573,-80,0,0
8.047027,-15876,-3852,-1344,-3120,-262,-229,0,0
8.047027,-15784,-4136,-1016,-3056,-327,24,0,0
8.096796,-16148,-3992,-1128,-3104,-766,248,0,0
8.129973,-16088,-4132,-1404,-3056,-715,54,0,0
8.179742,-15880,-4124,-1004,-3120,-411,-628,0,0
8.179742,-15956,-3952,-1044,-3136,-765,48,0,0
8.229503,-15876,-3652,-1396,-3104,-419,17,0,0
8.262683,-15728,-3912,-1280,-3104,-76,-129,0,0
8.279271,-15784,-3876,-1092,-3088,106,18,0,0
8.312449,-15932,-4020,-1004,-3072,-206,703,0,0
8.395397,-16020,-4508,-1248,-3104,64,836,0,0
8.395397,-15904,-4140,-1284,-3104,-32,1070,0,0
8.494934,-15932,-4028,-1380,-3088,29,832,0,0
8.494934,-15800,-4008,-1472,-3040,93,219,0,0
8.528113,-15828,-4080,-1320,-3088,224,65,0,0
8.544703,-15956,-4080,-1120,-3056,89,389,0,0
8.577884,-15920,-4000,-1404,-3088,113,465,0,0
8.577884,-15828,-3756,-1256,-3088,139,749,0,0
8.627647,-15836,-3428,-1344,-3072,562,1288,0,0
8.660824,-15972,-4364,-1392,-3088,222,1043,0,0
8.677413,-16000,-4324,-1352,-3072,231,1526,0,0
8.710594,-15996,-4164,-1764,-3056,362,1708,0,0
8.727181,-15492,-4120,-1636,-3104,287,700,0,0
8.810129,-15648,-4272,-1884,-3088,249,353,0,0
8.843307,-15972,-4224,-1876,-3088,169,403,0,0
8.859896,-16036,-4144,-1752,-3072,140,501,0,0
8.893076,-15800,-4248,-1560,-3072,60,432,0,0
8.893076,-15764,-4168,-1540,-3040,-389,649,0,0
8.942842,-15756,-4080,-2016,-3072,-329,547,0,0
8.97602,-15876,-4072,-1860,-3040,85,168,0,0
8.992612,-15784,-4364,-1708,-3104,-85,68,0,0
9.02579,-15856,-4324,-1912,-3088,-297,329,0,0
9.075055,-15776,-4464,-1804,-3056,-169,208,0,0
9.075055,-15712,-4316,-1764,-3104,-219,376,0,0
9.124823,-15644,-4100,-1876,-3072,-435,1029,0,0
9.124823,-15868,-4120,-2144,-3040,-16,864,0,0
9.174517,-15764,-4388,-1624,-3088,131,234,0,0
9.207672,-15784,-4184,-1892,-3072,-379,616,0,0
9.257407,-15860,-4208,-2076,-3104,-415,620,0,0
9.257407,-15844,-4004,-2232,-3088,-145,534,0,0
9.307141,-15928,-4020,-1952,-3040,121,341,0,0
9.3403,-15900,-4004,-2008,-3072,302,545,0,0
9.390032,-15968,-3920,-1812,-3072,355,1009,0,0
9.390032,-15872,-3804,-2456,-3024,187,882,0,0
9.439766,-15732,-4288,-2192,-3056,20,-27,0,0
9.489501,-15852,-4144,-1992,-3088,-156,169,0,0
9.522658,-15952,-4188,-2032,-3056,-109,-54,0,0
9.522658,-15780,-4376,-2184,-3088,0,-55,0,0
9.572391,-15768,-4376,-1984,-3072,-53,317,0,0
9.622124,-15780,-4344,-2168,-3056,-250,347,0,0
9.622124,-15744,-4332,-2336,-3040,-138,396,0,0
9.671855,-15600,-4468,-2088,-3072,-133,304,0,0
9.705009,-15864,-4292,-1936,-3072,-564,462,0,0
9.755185,-15836,-4016,-2032,-3072,-432,473,0,0
9.755185,-15620,-4052,-2500,-3040,-206,138,0,0
9.83811,-15744,-4004,-2180,-3056,-28,-78,0,0
9.887875,-15964,-4328,-2424,-3072,-12,331,0,0
9.937631,-15808,-4200,-2136,-3040,-33,285,0,0
9.937631,-15780,-4260,-2176,-3056,-129,430,0,0
9.9874,-15812,-4132,-2100,-3056,50,511,0,0
10.02058,-15844,-4116,-2276,-3088,169,624,0,0
10.02058,-15616,-4188,-2296,-3056,317,207,0,0
10.07034,-15708,-4296,-2196,-3056,246,104,0,0
10.07034,-15860,-4172,-2268,-3024,181,118,0,0
10.1201,-15884,-4208,-2192,-3072,-6,-37,0,0
10.15327,-15940,-4252,-2096,-3024,-329,286,0,0
10.16987,-15812,-4148,-2328,-3056,-333,436,0,0
10.20304,-15672,-4076,-2364,-3056,-93,-119,0,0
10.2528,-15904,-4208,-2244,-2992,-45,-130,0,0
10.28598,-15756,-4320,-2008,-3056,-26,247,0,0
10.30256,-15676,-3988,-2100,-3040,-252,319,0,0
10.33574,-15764,-4204,-2412,-3056,-52,143,0,0
10.33574,-15752,-4260,-2236,-3056,134,54,0,0
10.3855,-15716,-4184,-2340,-3056,116,52,0,0
10.41867,-15716,-4348,-2268,-3056,-14,-3,0,0
10.46844,-15868,-4316,-2200,-3024,-36,81,0,0
10.46844,-15652,-4228,-2204,-3040,-103,83,0,0
10.5182,-15840,-4208,-2268,-3056,-76,99,0,0
10.56796,-15940,-4112,-2276,-3040,85,-151,0,0
10.60114,-15820,-4240,-2208,-3040,300,-708,0,0
10.61773,-15572,-4100,-1832,-3040,21,-33,0,0
10.6509,-15844,-4256,-1944,-3072,-47,192,0,0
10.70066,-15828,-3968,-2012,-3040,-144,412,0,0
10.70066,-15684,-4124,-2280,-3056,133,75,0,0
10.73422,-15776,-4148,-2032,-3040,182,-29,0,0
10.78398,-15792,-4372,-1840,-3008,-51,-45,0,0
10.83381,-15864,-4252,-2212,-3040,-72,60,0,0
10.83381,-15712,-4296,-2096,-3024,-228,335,0,0
10.8836,-15688,-4280,-2096,-3056,-207,257,0,0
10.9168,-15664,-4216,-2000,-3024,-252,77,0,0
10.9334,-15760,-4256,-2072,-3072,-154,-91,0,0
10.96659,-16004,-4424,-1896,-3024,-60,-309,0,0
10.99978,-15604,-4120,-2072,-3040,-155,206,0,0
11.04958,-15664,-4200,-2176,-3024,-31,-264,0,0
11.09937,-15976,-4212,-1948,-3008,166,-98,0,0
11.09937,-15768,-4260,-2016,-3040,-32,423,0,0
11.14917,-15748,-4264,-2052,-3040,-26,200,0,0
11.18236,-15704,-4140,-1956,-3024,117,-68,0,0
11.19896,-15704,-4204,-2080,-3024,193,-380,0,0
11.23215,-15720,-4236,-1824,-3024,-43,-236,0,0
11.28194,-15940,-4288,-1824,-3040,-83,187,0,0
11.28194,-15740,-4296,-2064,-3056,-50,322,0,0
11.33174,-15712,-4324,-1936,-3024,117,-116,0,0
11.41473,-15768,-4316,-1740,-3024,66,135,0,0
11.41473,-15832,-4200,-1908,-3040,-79,241,0,0
11.46452,-15708,-4368,-1760,-3008,-41,193,0,0
11.54751,-15592,-4272,-1816,-3008,-71,134,0,0
11.54751,-15732,-4348,-1580,-3056,-261,-72,0,0
11.6305,-15936,-4428,-1872,-3024,-400,-445,0,0
11.6471,-15880,-4464,-1524,-3024,-707,-24,0,0
11.73008,-15960,-3996,-2068,-3008,-395,479,0,0
11.73008,-15824,-3940,-2168,-3056,311,128,0,0
11.77988,-15732,-4216,-1956,-3072,658,-98,0,0
11.77988,-15768,-4504,-1496,-3040,538,138,0,0
11.81307,-15792,-4504,-1744,-3024,277,335,0,0
11.86287,-15712,-4300,-1800,-3008,223,109,0,0
11.86287,-15732,-4464,-1892,-3024,244,-24,0,0
11.91266,-15808,-4420,-1604,-3024,13,-62,0,0
11.91266,-15796,-4396,-1668,-3024,-222,225,0,0
12.06204,-15720,-4452,-1836,-3024,-304,83,0,0
12.09523,-15896,-4440,-1808,-2976,-215,-37,0,0
12.09523,-15856,-4168,-1712,-3024,-326,406,0,0
12.14502,-15752,-4160,-1928,-3008,-308,323,0,0
12.14502,-15668,-4196,-1832,-3008,-211,147,0,0
12.17822,-15784,-4092,-1676,-3008,-189,286,0,0
12.17822,-15820,-4176,-1864,-3008,-57,404,0,0
12.22801,-15800,-4300,-1744,-3008,23,124,0,0
12.2778,-15952,-4072,-1824,-3024,120,423,0,0
12.2778,-15648,-4288,-1712,-2992,61,450,0,0
12.311,-15688,-4428,-2008,-3024,198,293,0,0
12.3276,-15796,-4356,-1760,-3040,135,226,0,0
12.36079,-15780,-4348,-1648,-2992,-24,565,0,0
12.36079,-15684,-4140,-1848,-2976,-295,522,0,0
12.41058,-15856,-4052,-1916,-2992,-146,439,0,0
12.44378,-15872,-4156,-1788,-2992,-117,276,0,0
12.46038,-15924,-4192,-1856,-3040,-248,272,0,0
12.49357,-16060,-4104,-2056,-3008,-72,410,0,0
12.49357,-15844,-4128,-1916,-2992,113,257,0,0
12.54336,-15884,-4100,-2096,-2992,234,306,0,0
12.59316,-15920,-4080,-2060,-2992,185,590,0,0
12.59316,-15840,-4088,-1880,-3008,288,587,0,0
12.62635,-15632,-4216,-1784,-3040,132,320,0,0
12.64295,-15768,-4224,-1908,-3008,-18,400,0,0
12.67614,-15724,-4232,-2132,-3008,-120,333,0,0
12.72594,-15828,-4336,-2260,-3008,68,95,0,0
12.72594,-15856,-4256,-1900,-3008,-56,164,0,0
12.77524,-15792,-4196,-1884,-3024,-399,587,0,0
12.80844,-15680,-3960,-2132,-2992,-395,550,0,0
12.80844,-15600,-4036,-2084,-3008,-149,256,0,0
12.85822,-15652,-4180,-1888,-2992,-77,63,0,0
12.90801,-15724,-4216,-1720,-2992,-164,69,0,0
12.9412,-15712,-4168,-1844,-3008,-325,243,0,0
12.9578,-15760,-4048,-2268,-3024,-239,121,0,0
12.99099,-15908,-4080,-2300,-2992,1,-76,0,0
13.04078,-16056,-3992,-2240,-2976,152,77,0,0
13.04078,-15892,-4216,-2168,-3008,323,376,0,0
13.09057,-15624,-4504,-1704,-2992,96,743,0,0
13.14035,-15580,-4552,-1844,-3008,-83,534,0,0
13.17354,-15820,-4012,-2076,-2960,-277,373,0,0
13.22333,-15904,-4156,-1876,-3008,-150,-148,0,0
13.22333,-15904,-4264,-2136,-3056,-206,60,0,0
13.27312,-15808,-4300,-2112,-3008,-246,-7,0,0
13.30631,-15912,-4268,-2272,-2992,-277,110,0,0
13.3561,-15668,-4332,-2084,-2976,-77,29,0,0
13.3561,-15640,-4392,-2072,-3008,-39,50,0,0
13.40589,-15744,-4344,-2176,-3008,-3,216,0,0
13.43908,-15676,-4432,-2124,-3008,-94,131,0,0
13.45567,-15664,-4620,-2040,-3008,-122,4,0,0
13.48886,-15772,-4452,-1684,-2992,-468,71,0,0
13.53865,-15764,-4204,-2268,-2992,-621,167,0,0
13.57184,-15868,-4432,-2016,-3008,-538,-297,0,0
13.58844,-15840,-4496,-1732,-2976,-401,-179,0,0
13.62163,-15680,-4560,-1748,-3008,-614,-505,0,0
13.67142,-15800,-4156,-2440,-3024,-519,-115,0,0
13.70461,-15660,-3980,-2520,-3008,-65,-206,0,0
13.72121,-15688,-4304,-2468,-2976,120,32,0,0
13.7544,-15704,-4564,-2108,-2976,178,42,0,0
13.80419,-15776,-4476,-1796,-2992,-97,268,0,0
13.80419,-15752,-4284,-2128,-2992,-207,365,0,0
13.85398,-15748,-4192,-2224,-2960,46,225,0,0
13.93696,-15860,-4384,-1800,-2992,229,-125,0,0
13.98675,-15968,-4316,-1820,-2992,-50,343,0,0
14.01995,-15824,-4456,-1744,-3008,31,246,0,0
14.03654,-15740,-4404,-1988,-3008,-38,139,0,0
14.06974,-15728,-4444,-1860,-2992,-154,181,0,0
14.06974,-15648,-4236,-2020,-3008,-97,99,0,0
14.11953,-15692,-4456,-1752,-2992,-166,86,0,0
14.11953,-15696,-4508,-1812,-2992,-319,108,0,0
14.16932,-15716,-4268,-1984,-2976,-470,413,0,0
14.20251,-15720,-4304,-1964,-2960,-197,187,0,0
14.23522,-15736,-4252,-1800,-2976,-26,132,0,0
14.25181,-15848,-4208,-1964,-2976,-53,371,0,0
14.30158,-15788,-4212,-2136,-2976,73,243,0,0
14.35135,-15704,-4316,-2080,-2976,213,340,0,0
14.36794,-15864,-4408,-1956,-2976,320,212,0,0
14.36794,-15888,-4344,-1920,-2976,141,334,0,0
14.36794,-15760,-4328,-2012,-2960,44,636,0,0
14.36794,-15448,-4248,-1928,-3008,-72,513,0,0
14.36794,-15716,-4404,-2416,-2960,102,144,0,0
14.36794,-15860,-4388,-1884,-2992,245,28,0,0
14.55044,-15876,-4412,-2032,-2960,34,357,1,0
14.55044,-15676,-4416,-1892,-2976,7,249,1,0
14.64998,-15776,-4368,-1944,-2976,3,144,1,0
14.69976,-15764,-4368,-1748,-2960,-113,72,1,0
14.69976,-15648,-4372,-2312,-2976,-248,231,1,0
14.74953,-15536,-4352,-2092,-2960,-44,48,1,0
14.74953,-15820,-4156,-1924,-2992,-10,127,1,0
14.7993,-15744,-4348,-2004,-2976,-34,176,1,0
14.83248,-15768,-4312,-1992,-2976,19,89,1,0
14.84907,-15784,-4156,-1808,-2960,-178,178,1,0
14.88225,-15784,-4312,-1968,-2960,-145,98,1,0
14.93202,-15708,-4352,-1996,-2960,-85,131,1,0
14.93202,-15736,-4304,-1972,-2976,-61,80,1,0
14.9652,-15776,-4332,-2056,-2960,-109,152,1,0
15.01497,-15792,-4316,-2044,-2976,-47,273,1,0
15.01497,-15744,-4224,-1896,-2976,42,176,1,0
15.06475,-15788,-4212,-1936,-2992,-58,280,1,0
15.06475,-15712,-4260,-2004,-2976,45,98,1,0
15.11452,-15732,-4408,-1984,-2960,50,19,1,0
15.1477,-15780,-4416,-1864,-2944,-108,274,1,0
15.19747,-15756,-4260,-2160,-2960,-43,93,1,0
15.19747,-15628,-4232,-2076,-2928,-68,113,1,0
15.29701,-15728,-4336,-1860,-2960,-87,39,1,0
15.33019,-15896,-4220,-1996,-2960,-217,53,1,0
15.33019,-15796,-4392,-1996,-2960,-120,24,1,0
15.37996,-15756,-4308,-2036,-2960,-133,19,1,0
15.41314,-15748,-4224,-2108,-2944,-95,75,1,0
15.42973,-15908,-4228,-1900,-2960,80,21,1,0
15.46292,-15936,-4144,-1848,-2960,87,235,1,0
15.51269,-15760,-4424,-1820,-2960,180,89,1,0
15.51269,-15744,-4256,-1640,-2944,89,110,1,0
15.56246,-15804,-4120,-2052,-2928,91,220,1,0
15.59564,-15696,-4256,-2016,-2960,131,47,1,0
15.61223,-15808,-4356,-2008,-2928,213,-23,1,0
15.64541,-15936,-4168,-1952,-2960,75,209,1,0
15.69518,-15908,-4092,-1892,-2992,155,101,1,0
15.69518,-15824,-4124,-2064,-2992,122,289,1,0
15.74495,-15784,-4044,-1776,-2960,126,159,1,0
15.77814,-15848,-4136,-1844,-2992,288,38,1,0
15.77814,-15856,-4216,-1748,-2944,140,110,1,0
15.82791,-15832,-4208,-1944,-2960,49,62,1,0
15.96063,-15856,-3880,-1944,-2912,193,-251,1,0
15.96063,-15736,-4216,-1608,-2944,210,65,1,0
16.01078,-15928,-4060,-1696,-2944,16,334,1,0
16.01078,-15724,-4232,-1720,-2992,113,115,1,0
16.06057,-15720,-3952,-1800,-2992,131,235,1,0
16.06057,-15892,-4000,-1784,-2928,385,219,1,0
16.09376,-15800,-4028,-1740,-2960,456,421,1,0
16.09376,-15888,-4120,-1596,-2976,521,118,1,0
16.14354,-15728,-4224,-1844,-2960,442,275,1,0
16.19332,-15820,-4236,-1852,-2944,524,67,1,0
16.19332,-15844,-4184,-1560,-2912,447,-50,1,0
16.22651,-15676,-4412,-1344,-2976,124,254,1,0
16.27629,-15776,-4224,-1476,-2928,-163,173,1,0
16.27629,-15732,-4204,-1872,-2928,-162,27,1,0
16.32607,-15764,-4064,-1856,-2944,-18,34,1,0
16.35926,-15728,-4284,-1504,-2944,-52,63,1,0
16.37586,-15952,-4248,-1724,-2944,-56,94,1,0
16.40905,-15752,-4316,-1760,-2960,156,108,1,0
16.45882,-15612,-4380,-1404,-2944,130,-92,1,0
16.45882,-15840,-4356,-1448,-2944,-42,78,1,0
16.50861,-15852,-4448,-1640,-2960,-122,-19,1,0
16.5418,-15868,-4176,-1600,-2960,-228,209,1,0
16.59158,-15736,-4236,-1652,-2944,24,122,1,0
16.64136,-15900,-4108,-1556,-2928,8,156,1,0
16.70774,-15808,-4208,-1556,-2960,96,105,1,0
16.70774,-15776,-4188,-1528,-2960,53,136,1,0
16.70774,-15816,-4236,-1620,-2928,123,-6,1,0
16.70774,-16004,-4180,-1784,-2960,-21,234,1,0
16.8239,-15916,-4088,-1672,-2912,39,178,1,0
16.85709,-15760,-4168,-1376,-2912,-14,276,1,0
16.85709,-15932,-3996,-1644,-2944,-55,263,1,0
16.90688,-15812,-4168,-1420,-2928,23,18,1,0
16.90688,-15804,-4152,-1620,-2944,-140,190,1,0
16.95666,-15896,-4272,-1540,-2928,-90,77,1,0
17.00644,-15744,-4148,-1620,-2944,-169,224,1,0
17.00644,-15900,-4008,-1844,-2928,-42,120,1,0
17.02303,-15996,-4000,-1660,-2928,195,282,1,0
17.02303,-15856,-4192,-1560,-2960,139,446,1,0
17.08941,-15760,-4036,-1748,-2960,56,322,1,0
17.1226,-15868,-4000,-1592,-2944,250,330,1,0
17.17238,-15732,-4176,-1532,-2960,190,22,1,0
17.27195,-15780,-4228,-1156,-2960,13,-104,1,0
17.30514,-15848,-4088,-1444,-2928,-241,64,1,0
17.32173,-15896,-4092,-1740,-2928,-183,74,1,0
17.35492,-16000,-4004,-1656,-2928,34,-36,1,0
17.35492,-15884,-4124,-1496,-2944,116,32,1,0
17.4047,-15864,-4056,-1672,-2928,-29,267,1,0
17.4047,-15852,-4020,-1688,-2928,93,127,1,0
17.45449,-15836,-4064,-1796,-2912,77,151,1,0
17.48768,-15972,-3976,-1692,-2912,136,309,1,0
17.48768,-15780,-3972,-1676,-2928,116,200,1,0
17.53746,-15808,-3992,-1528,-2928,279,-64,1,0
17.53746,-15956,-4004,-1544,-2944,279,-104,1,0
17.58724,-16080,-4136,-1564,-2944,275,-128,1,0
17.62043,-15916,-3960,-1652,-2912,398,-218,1,0
17.67226,-15976,-4200,-1508,-2880,631,-227,1,0
17.67226,-15708,-4248,-1060,-2928,394,-290,1,0
17.72204,-15936,-4228,-1384,-2944,108,-125,1,0
17.75523,-15920,-4176,-1268,-2896,154,-202,1,0
17.77182,-15992,-4112,-1356,-2928,73,-86,1,0
17.80501,-16020,-4120,-1100,-2960,173,-109,1,0
17.8548,-15840,-4000,-1116,-2928,30,95,1,0
17.8548,-15892,-4056,-1244,-2912,-45,-58,1,0
17.90458,-15988,-3976,-1088,-2912,9,-4,1,0
17.93777,-15852,-4152,-1064,-2928,63,121,1,0
17.98755,-15952,-4060,-1092,-2912,41,73,1,0
17.98755,-15820,-4044,-1220,-2912,67,46,1,0
18.03734,-15832,-4328,-1112,-2880,225,-149,1,0
18.07052,-15796,-4152,-1160,-2960,-93,-186,1,0
18.12031,-15908,-4148,-1232,-2928,177,-477,1,0
18.12031,-15964,-4240,-872,-2896,240,-402,1,0
18.17009,-15972,-4348,-872,-2944,246,-476,1,0
18.21987,-15880,-4304,-912,-2912,21,147,1,0
18.25306,-15856,-4132,-940,-2928,-77,235,1,0
18.26965,-15940,-4156,-1060,-2928,12,70,1,0
18.30284,-15804,-4216,-1124,-2896,109,30,1,0
18.35262,-15876,-4196,-1124,-2896,108,173,1,0
18.35262,-15912,-4272,-1208,-2912,260,27,1,0
18.40241,-15752,-4280,-968,-2928,201,-81,1,0
18.4356,-15764,-4424,-756,-2880,18,46,1,0
18.4356,-16008,-4276,-860,-2912,-112,151,1,0
18.48538,-15904,-4168,-892,-2912,-75,55,1,0
18.53517,-15796,-4320,-992,-2896,-49,16,1,0
18.56836,-16008,-4280,-932,-2928,170,-63,1,0
18.58495,-15972,-4276,-812,-2928,-65,333,1,0
18.61814,-15788,-4216,-1036,-2944,93,197,1,0
18.66792,-15772,-4236,-856,-2896,102,383,1,0
18.66792,-15848,-4296,-604,-2896,44,316,1,0
18.7177,-15904,-4356,-880,-2928,-22,224,1,0
18.75089,-15816,-4236,-896,-2928,-47,152,1,0
18.75089,-15904,-4148,-904,-2880,123,116,1,0
18.80067,-15824,-4324,-768,-2912,100,191,1,0
18.85045,-15808,-4356,-932,-2880,-86,309,1,0
18.88364,-15896,-4260,-752,-2912,-142,380,1,0
18.93342,-15804,-4112,-952,-2880,-128,284,1,0
18.98321,-15804,-4112,-992,-2960,-5,221,1,0
18.98321,-15960,-4176,-1084,-2944,158,32,1,0
19.0164,-15828,-4188,-812,-2912,56,129,1,0
19.03299,-15856,-4280,-844,-2928,-134,204,1,0
19.06618,-15912,-4152,-976,-2896,-178,167,1,0
19.11596,-16040,-4180,-1068,-2896,-7,203,1,0
19.11596,-15984,-4332,-976,-2912,134,185,1,0
19.16574,-16064,-4100,-1080,-2912,28,291,1,0
19.21553,-15760,-4236,-824,-2880,-72,277,1,0
19.24871,-15740,-4228,-844,-2864,-139,214,1,0
19.2985,-15940,-4184,-852,-2896,-48,125,1,0
19.2985,-16032,-4136,-1148,-2896,-22,147,1,0
19.34828,-16032,-4348,-868,-2896,204,-30,1,0
19.38147,-15808,-4328,-768,-2880,-9,354,1,0
19.43125,-15752,-4204,-892,-2880,-106,183,1,0
19.43125,-15912,-4148,-992,-2896,-27,276,1,0
19.48103,-15820,-4172,-972,-2896,91,169,1,0
19.51422,-15828,-4264,-900,-2880,69,240,1,0
19.564,-15944,-4132,-952,-2864,22,224,1,0
19.564,-15860,-4356,-880,-2864,-11,638,1,0
19.61379,-16128,-4104,-1300,-2880,-575,1211,1,0
19.66357,-16024,-3932,-1136,-2864,-154,949,1,0
19.66357,-15796,-3904,-1076,-2880,117,130,1,0
19.69676,-15820,-4132,-504,-2896,193,248,1,0
19.74654,-15932,-3944,-732,-2912,-304,737,1,0
19.74654,-15896,-3700,-1316,-2896,-180,336,1,0
19.79633,-15888,-4112,-1184,-2880,112,47,1,0
19.82952,-15864,-4064,-1032,-2912,6,172,1,0
19.8793,-15884,-4024,-1076,-2896,-35,31,1,0
19.92908,-15948,-4032,-1164,-2928,-60,49,1,0
19.92908,-16028,-4004,-824,-2896,-37,53,1,0
19.97887,-15952,-3908,-1092,-2880,-129,127,1,0
20.01205,-15896,-4000,-1088,-2880,167,-44,1,0
20.01205,-15988,-4128,-876,-2880,168,4,1,0
20.06184,-15972,-3968,-968,-2896,-44,403,1,0
20.11162,-15828,-3988,-1028,-2896,153,51,1,0
20.11162,-15696,-4192,-1032,-2864,165,24,1,0
20.1946,-15896,-4128,-1160,-2912,-6,41,1,0
20.24438,-16092,-3984,-1012,-2832,81,25,1,0
20.24438,-15856,-4236,-704,-2912,-205,279,1,0
20.27757,-15792,-3940,-868,-2880,-381,171,1,0
20.27757,-15952,-3872,-1156,-2864,-82,19,1,0
20.32735,-16048,-3976,-1136,-2912,-34,49,1,0
20.37713,-16040,-4028,-920,-2880,13,85,1,0
20.37713,-15952,-3992,-1084,-2880,-208,251,1,0
20.42691,-16024,-3932,-1060,-2912,-22,108,1,0
20.50989,-15892,-4144,-1212,-2896,-50,181,1,0
20.50989,-15752,-4180,-1036,-2864,60,177,1,0
20.55967,-15796,-4232,-652,-2880,-154,307,1,0
20.55967,-15868,-4056,-968,-2848,-114,263,1,0
20.64264,-15732,-4044,-984,-2880,45,124,1,0
20.64264,-15956,-3944,-1052,-2912,-3,191,1,0
20.69242,-15920,-4228,-920,-2896,26,47,1,0
20.69242,-15920,-4132,-1028,-2880,13,130,1,0
20.74221,-15796,-3988,-916,-2880,64,-22,1,0
20.82518,-16000,-4152,-924,-2880,-139,150,1,0
20.82518,-15940,-4212,-780,-2864,-165,119,1,0
20.87496,-15816,-4168,-1140,-2864,-257,221,1,0
20.87496,-15896,-4036,-1112,-2832,-92,68,1,0
20.90815,-15768,-4052,-816,-2864,-18,29,1,0
20.92475,-15960,-4140,-880,-2880,-42,143,1,0
20.95794,-15920,-3976,-988,-2864,-10,155,1,0
21.00772,-15904,-4216,-924,-2864,37,110,1,0
21.00772,-15820,-4012,-860,-2896,97,109,1,0
21.0575,-15920,-4224,-980,-2864,-19,178,1,0
21.0575,-15944,-4120,-980,-2864,-38,-36,1,0
21.14047,-15832,-4256,-920,-2880,-30,-155,1,0
21.19026,-15916,-4072,-776,-2848,-357,180,1,0
21.19026,-15956,-4024,-768,-2848,-52,68,1,0
21.22345,-16008,-4260,-980,-2864,-173,118,1,0
21.24004,-15896,-4112,-748,-2864,-126,77,1,0
21.27323,-16080,-4140,-804,-2880,-180,318,1,0
21.32301,-15828,-4012,-796,-2880,116,113,1,0
21.32301,-15864,-4176,-1048,-2864,-80,196,1,0
21.3562,-15944,-4196,-820,-2832,-49,170,1,0
21.45576,-15828,-4160,-844,-2896,-121,225,1,0
21.45576,-15880,-4148,-736,-2864,3,130,1,0
21.50555,-15916,-4120,-664,-2864,-89,267,1,0
21.50555,-15924,-4116,-988,-2848,-61,274,1,0
21.53874,-15940,-4024,-968,-2880,45,175,1,0
21.58852,-15936,-4364,-712,-2864,116,61,1,0
21.58852,-16040,-4256,-684,-2896,-7,299,1,0
21.62171,-15820,-4128,-816,-2848,-250,355,1,0
21.6383,-15840,-4092,-940,-2864,-16,184,1,0
21.68809,-15772,-4064,-804,-2848,-176,91,0,0
21.72128,-16004,-4104,-708,-2864,-66,-11,0,0
21.72128,-15948,-3976,-924,-2880,-232,163,0,0
21.82084,-15936,-4100,-1052,-2848,80,34,0,0
21.82084,-15996,-4260,-740,-2816,97,58,0,0
21.8539,-15788,-4132,-580,-2880,0,170,0,0
21.8539,-15828,-4232,-644,-2864,-198,325,0,0
21.90382,-15996,-4112,-1004,-2880,13,47,0,0
21.9536,-15880,-4220,-568,-2832,-7,131,0,0
21.9536,-15892,-4288,-1012,-2864,-73,75,0,0
22.00338,-15976,-4052,-820,-2832,120,44,0,0
22.03657,-15828,-4236,-676,-2880,-156,308,0,0
22.03657,-15740,-4116,-932,-2832,-132,137,0,0
22.08635,-15908,-4200,-936,-2832,-20,117,0,0
22.13614,-16004,-4104,-852,-2880,-67,184,0,0
22.16932,-15980,-4148,-908,-2848,-33,123,0,0
22.16932,-15892,-4224,-716,-2864,-119,167,0,0
22.21911,-15948,-4160,-912,-2864,-61,188,0,0
22.26889,-15796,-4244,-704,-2864,30,38,0,0
22.26889,-15992,-4168,-876,-2832,-138,113,0,0
22.31868,-15960,-4224,-648,-2864,-34,79,0,0
22.35186,-15896,-4068,-904,-2864,-199,194,0,0
22.35186,-15864,-4204,-904,-2848,-85,169,0,0
22.40165,-15852,-4140,-724,-2896,-134,257,0,0
22.48462,-16020,-4176,-812,-2800,-60,288,0,0
22.48462,-15880,-4100,-848,-2864,33,148,0,0
22.5344,-15964,-4224,-872,-2864,-53,174,0,0
22.58418,-15880,-4248,-840,-2832,-77,187,0,0
22.58418,-15844,-4120,-844,-2832,-76,176,0,0
22.61737,-15764,-4196,-784,-2864,-23,102,0,0
22.71657,-15908,-4308,-648,-2864,-112,172,0,0
22.71657,-15948,-4140,-672,-2848,-307,202,0,0
22.79941,-16044,-4044,-900,-2816,-88,117,0,0
22.79941,-15932,-4068,-772,-2848,-13,127,0,0
22.84918,-15864,-4128,-636,-2848,-109,213,0,0
22.84918,-15828,-4344,-792,-2848,-69,232,0,0
22.89894,-15824,-4140,-636,-2848,51,49,0,0
22.93212,-15856,-4228,-864,-2832,-129,124,0,0
22.93212,-15952,-4200,-908,-2832,-8,-121,0,0
22.98189,-15988,-4092,-432,-2848,-56,80,0,0
22.98189,-15840,-4264,-668,-2864,-416,360,0,0
23.03165,-15956,-4036,-948,-2848,-260,71,0,0
23.11459,-15888,-4144,-820,-2848,-123,174,0,0
23.11459,-15924,-4056,-880,-2832,-145,167,0,0
23.16436,-15864,-4164,-488,-2816,-90,86,0,0
23.16436,-15976,-4172,-932,-2832,-202,244,0,0
23.21412,-15940,-4148,-792,-2832,-36,115,0,0
23.21412,-15836,-4132,-808,-2848,-82,99,0,0
23.2473,-15948,-4216,-732,-2864,-109,174,0,0
23.29707,-15988,-4164,-744,-2880,-135,136,0,0
23.29707,-15916,-4012,-908,-2832,-194,179,0,0
23.34683,-15932,-4104,-888,-2848,-16,151,0,0
23.3966,-15912,-4052,-764,-2864,72,90,0,0
23.3966,-16016,-4260,-588,-2832,-121,244,0,0
23.42978,-15848,-4076,-564,-2848,-124,251,0,0
23.47954,-15808,-4320,-740,-2848,-223,139,0,0
23.47954,-15964,-4076,-944,-2848,-88,135,0,0
23.52931,-15884,-4124,-876,-2848,-203,218,0,0
23.56249,-15920,-4052,-896,-2816,-124,58,0,0
23.57907,-15908,-4164,-780,-2848,-201,117,0,0
23.61225,-15772,-3928,-884,-2832,-316,168,0,0
23.66202,-15808,-4156,-1072,-2816,-91,-144,0,0
23.66202,-16212,-4188,-668,-2832,-72,-20,0,0
23.74496,-16236,-4088,-512,-2832,-201,252,0,0
23.79473,-15952,-4052,-780,-2848,-250,260,0,0
23.79473,-15828,-4084,-936,-2816,-173,132,0,0
23.84449,-16076,-3988,-876,-2832,-146,156,0,0
23.87767,-15948,-4072,-872,-2832,-40,97,0,0
23.89426,-15852,-4088,-1000,-2848,-49,88,0,0
23.92743,-15968,-4184,-676,-2832,10,154,0,0
23.9772,-16068,-4108,-436,-2832,-124,354,0,0
23.9772,-15892,-4036,-920,-2848,-357,483,0,0
24.06014,-15852,-4028,-612,-2832,-218,268,0,0
24.10991,-16012,-3940,-796,-2832,-140,317,0,0
24.10991,-15880,-4272,-860,-2848,-15,55,0,0
24.15967,-15964,-4104,-668,-2864,-230,390,0,0
24.19285,-15924,-4088,-972,-2832,-86,273,0,0
24.19285,-15824,-4064,-964,-2816,-57,340,0,0
24.24261,-15920,-4156,-864,-2800,-2,245,0,0
24.24261,-15908,-4088,-664,-2832,-6,154,0,0
24.29238,-15928,-4192,-768,-2800,-83,220,0,0
24.32556,-15932,-4136,-896,-2816,-164,309,0,0
24.34215,-15996,-4160,-792,-2832,-149,494,0,0
24.37532,-15932,-4116,-636,-2848,-187,535,0,0
24.42509,-15812,-3988,-1020,-2816,-199,559,0,0
24.47485,-15980,-4012,-876,-2800,-157,364,0,0
24.47485,-15884,-4064,-1092,-2800,-285,422,0,0
24.50803,-15936,-4100,-880,-2800,-207,327,0,0
24.55779,-15912,-4100,-852,-2832,-448,412,0,0
24.55779,-15876,-3848,-1284,-2800,-239,232,0,0
24.60756,-15820,-4112,-892,-2832,-122,-8,0,0
24.64074,-15932,-3960,-1112,-2800,-160,160,0,0
24.65732,-15960,-3996,-964,-2800,-138,257,0,0
24.6905,-15872,-3992,-1008,-2816,-77,269,0,0
24.74026,-15940,-3960,-1100,-2816,-99,196,0,0
24.79003,-15952,-3852,-964,-2832,-257,180,0,0
24.79003,-16144,-4000,-1272,-2832,-63,145,0,0
24.83979,-15896,-3964,-868,-2816,-137,76,0,0
24.87297,-15952,-4044,-916,-2848,-172,321,0,0
24.92274,-15944,-3968,-892,-2832,-237,125,0,0
24.92274,-15980,-3796,-1176,-2800,-311,263,0,0
24.9725,-15896,-3880,-980,-2800,-105,171,0,0
25.00568,-15892,-3888,-992,-2832,-93,356,0,0
25.05544,-15892,-3960,-1140,-2816,-14,74,0,0
25.10521,-15960,-3920,-1336,-2816,-13,189,0,0
25.10521,-15944,-3972,-1168,-2832,10,138,0,0
25.13839,-16088,-4116,-932,-2848,-124,139,0,0
25.18815,-16052,-4044,-884,-2816,-272,241,0,0
25.18815,-15952,-3940,-816,-2848,-279,258,0,0
25.23792,-16024,-3908,-948,-2800,-190,95,0,0
25.28768,-16036,-3788,-1188,-2832,-189,216,0,0
25.32086,-16028,-3772,-1140,-2816,-122,246,0,0
25.33745,-15844,-3840,-1372,-2816,-130,394,0,0
25.42039,-15848,-3984,-1068,-2816,-24,162,0,0
25.42039,-15880,-3976,-876,-2816,39,-55,0,0
25.47015,-16100,-4032,-704,-2832,-270,350,0,0
25.50332,-15944,-3960,-1164,-2832,-346,419,0,0
25.50332,-15888,-3908,-1228,-2800,-141,159,0,0
25.55309,-15944,-3932,-1056,-2816,-104,244,0,0
25.58627,-15908,-3676,-964,-2816,-334,411,0,0
25.60286,-16000,-3916,-1244,-2816,-150,260,0,0
25.63603,-16016,-3824,-1116,-2800,-4,209,0,0
25.73557,-16044,-4020,-1020,-2784,-192,15,0,0
25.73557,-15960,-4008,-980,-2800,-308,325,0,0
25.78533,-15944,-3804,-1188,-2800,-271,280,0,0
25.78533,-15912,-3968,-1212,-2800,-99,-14,0,0
25.80192,-15904,-4044,-644,-2816,-269,295,0,0
25.86827,-15960,-3924,-1092,-2800,-291,345,0,0
25.86827,-15924,-3652,-1296,-2832,-119,50,0,0
25.91804,-16108,-3824,-1228,-2816,-2,-22,0,0
25.95121,-15968,-3900,-1072,-2800,-139,391,0,0
25.95121,-15936,-3916,-1152,-2800,82,25,0,0
26.05074,-15992,-3916,-1056,-2800,-183,395,0,0
26.08392,-16044,-3928,-1040,-2816,-34,80,0,0
26.08392,-15924,-3924,-1060,-2816,-75,334,0,0
26.13368,-15996,-3936,-1016,-2832,24,62,0,0
26.13368,-15932,-3960,-912,-2784,-70,197,0,0
26.18345,-15840,-3960,-1260,-2800,-148,37,0,0
26.18345,-15920,-4000,-1080,-2800,-326,229,0,0
26.21658,-15820,-4028,-1180,-2784,-397,73,0,0
26.26639,-15784,-3924,-1304,-2816,-655,225,0,0
26.28298,-15956,-3856,-1408,-2800,-397,20,0,0
26.31616,-16008,-3924,-1100,-2784,-198,-37,0,0
26.36592,-15904,-4004,-1032,-2832,-198,-46,0,0
26.36592,-15904,-4008,-1032,-2816,-321,-25,0,0
26.3991,-15856,-3908,-1284,-2768,-169,23,0,0
26.44886,-15888,-4000,-1152,-2784,-77,13,0,0
26.49863,-15936,-3860,-1164,-2768,60,40,0,0
26.49863,-15996,-3920,-1024,-2752,-39,137,0,0
26.53181,-15896,-3924,-1116,-2784,-137,243,0,0
26.58158,-15828,-3972,-1148,-2816,42,18,0,0
26.58158,-15976,-3960,-940,-2800,-165,166,0,0
26.63134,-16112,-4016,-1388,-2768,54,95,0,0
26.68111,-15896,-4084,-812,-2752,-88,150,0,0
26.68111,-15996,-4080,-776,-2768,-212,291,0,0
26.73087,-16012,-4020,-876,-2768,-471,221,0,0
26.76405,-16024,-3840,-1408,-2784,-611,317,0,0
26.81381,-15836,-3888,-1492,-2768,-84,-145,0,0
26.84699,-15892,-3968,-1068,-2768,-59,-91,0,0
26.86358,-15980,-4148,-1028,-2800,-242,109,0,0
26.89676,-15864,-4052,-1076,-2768,-197,66,0,0
26.99628,-15920,-3984,-1436,-2736,-46,211,0,0
26.99628,-15812,-3984,-1228,-2800,14,-20,0,0
27.02946,-15928,-4156,-952,-2800,-53,212,0,0
27.02946,-15976,-3968,-1276,-2784,-163,354,0,0
27.07923,-15908,-4156,-1272,-2784,-61,-57,0,0
27.12899,-15756,-4164,-980,-2816,115,-89,0,0
27.12899,-16004,-4084,-868,-2784,-224,467,0,0
27.16217,-15932,-4020,-1052,-2784,-97,125,0,0
27.21193,-15928,-4068,-1208,-2784,-16,115,0,0
27.21193,-15824,-4104,-1164,-2800,-43,-332,0,0
27.2617,-15952,-4064,-1032,-2784,82,115,0,0
27.29488,-15872,-4132,-768,-2768,-177,186,0,0
27.31147,-15896,-4136,-1004,-2768,-346,125,0,0
27.34464,-15932,-3944,-1340,-2816,-76,1,0,0
27.39441,-15936,-4196,-1032,-2768,201,-172,0,0
27.44418,-15960,-4156,-892,-2784,-71,68,0,0
27.44418,-15932,-4032,-1180,-2784,290,146,0,0
27.47735,-15904,-4096,-696,-2768,282,-42,0,0
27.52712,-16080,-4164,-692,-2784,98,162,0,0
27.52712,-15912,-4212,-752,-2800,-76,422,0,0
27.57688,-15756,-4068,-940,-2768,-119,50,0,0
27.62665,-15896,-4072,-1192,-2784,-185,188,0,0
27.65983,-15888,-4180,-1120,-2752,-115,246,0,0
27.65983,-15944,-4076,-1060,-2768,8,130,0,0
27.70959,-15932,-4148,-968,-2784,-136,377,0,0
27.75936,-16056,-3976,-1020,-2768,-37,268,0,0
27.79254,-15928,-4148,-716,-2800,79,20,0,0
27.80913,-15944,-4152,-748,-2752,-159,199,0,0
27.8423,-15832,-4432,-736,-2768,-190,90,0,0
27.89207,-15900,-4288,-1216,-2784,-250,209,0,0
27.92525,-15860,-4236,-996,-2784,-93,245,0,0
27.94184,-16112,-4724,-1004,-2768,76,91,0,0
27.975,-15716,-4100,-1100,-2752,-78,368,0,0
28.02478,-15908,-4484,-728,-2784,-431,482,0,0
28.07454,-15768,-4144,-1240,-2768,-124,302,0,0
28.07454,-15804,-4336,-1068,-2768,-158,290,0,0
28.10772,-15884,-4116,-1236,-2800,-118,283,0,0
28.15749,-15880,-4404,-996,-2768,-226,222,0,0
28.15749,-15880,-4076,-1100,-2768,-313,377,0,0
28.25702,-15824,-4168,-1016,-2768,-192,111,0,0
28.34031,-15936,-4176,-1176,-2752,-134,80,0,0
28.34031,-15916,-4388,-1204,-2784,-60,28,0,0
28.39009,-15932,-4220,-1040,-2752,-57,56,0,0
28.39009,-15896,-4172,-892,-2768,-131,63,0,0
28.42327,-15876,-4180,-972,-2784,-175,-6,0,0
28.43986,-15812,-4284,-1012,-2768,-108,84,0,0
28.47304,-15888,-4196,-1052,-2752,7,-108,0,0
28.47304,-15832,-4248,-736,-2752,-266,111,0,0
28.5228,-15872,-4188,-1108,-2784,-325,147,0,0
28.55598,-15868,-4248,-1200,-2768,12,-78,0,0
28.57257,-15908,-4292,-812,-2816,-45,150,0,0
28.65551,-15980,-4328,-872,-2752,-42,327,0,0
28.70527,-15912,-4204,-956,-2768,10,325,0,0
28.70527,-15796,-4100,-1044,-2768,-109,279,0,0
28.75504,-15792,-4192,-1188,-2752,-43,254,0,0
28.75504,-15892,-4132,-1096,-2768,16,210,0,0
28.78822,-15848,-4376,-1100,-2784,168,150,0,0
28.83798,-15912,-4284,-936,-2768,-34,297,0,0
28.83798,-15728,-4336,-1236,-2768,91,64,0,0
28.87116,-15960,-4280,-980,-2752,-36,130,0,0
28.97069,-15940,-4220,-900,-2768,-209,204,0,0
28.97069,-15768,-4368,-1064,-2768,-237,177,0,0
29.02046,-15900,-4240,-1276,-2752,-119,30,0,0
29.02046,-15860,-4308,-856,-2752,-115,64,0,0
29.05363,-15776,-4360,-932,-2752,-42,28,0,0
29.05363,-15924,-4468,-956,-2752,-48,-149,0,0
29.1034,-15864,-4204,-808,-2768,-57,159,0,0
29.15317,-15756,-4264,-1024,-2768,-372,367,0,0
29.15317,-15800,-4208,-1236,-2768,-274,140,0,0
29.18673,-15808,-4256,-1072,-2736,-66,-20,0,0
29.23649,-15848,-4268,-920,-2752,67,29,0,0
29.23649,-15772,-4276,-1012,-2800,17,121,0,0
29.2863,-15776,-4296,-1232,-2736,261,-332,0,0
29.33609,-15828,-4380,-544,-2768,-62,98,0,0
29.36928,-15948,-4356,-776,-2768,-209,171,0,0
29.36928,-15980,-4288,-836,-2752,-57,100,0,0
29.41907,-15852,-4320,-880,-2752,-149,145,0,0
29.46885,-15788,-4448,-1060,-2784,-245,346,0,0
29.46885,-15700,-4296,-1196,-2800,-37,235,0,0
29.50205,-15916,-4348,-832,-2752,34,162,0,0
29.60162,-15952,-4312,-872,-2752,-47,115,0,0
29.60162,-15760,-4292,-880,-2768,-132,202,1,0
29.65141,-15868,-4280,-1072,-2784,32,132,1,0
29.6846,-15952,-4160,-876,-2736,45,248,1,0
29.6846,-15768,-4432,-900,-2752,128,72,1,0
29.73439,-15996,-4408,-912,-2768,147,13,1,0
29.73439,-15852,-4380,-712,-2768,-141,193,1,0
29.78418,-15756,-4388,-1296,-2752,91,-279,1,0
29.81737,-15768,-4428,-816,-2752,33,-174,1,0
29.86715,-15836,-4404,-884,-2752,-165,-180,1,0
29.86715,-15940,-4204,-956,-2784,-309,-163,1,0
29.91694,-15816,-4352,-520,-2752,-276,-117,1,0
29.95013,-15820,-4288,-932,-2752,-179,-210,1,0
29.96672,-15944,-4400,-892,-2752,-41,-4,1,0
29.99992,-15940,-4384,-544,-2752,-67,70,1,0
30.0497,-15552,-4292,-828,-2752,-122,100,1,0
30.08289,-15792,-4440,-908,-2752,34,316,1,0
30.09949,-15788,-4444,-660,-2720,171,120,1,0
30.13268,-15952,-4412,-584,-2752,-89,181,1,0
30.18247,-15872,-4276,-760,-2736,-181,490,1,0
30.18247,-15724,-4384,-764,-2720,13,127,1,0
30.23225,-16000,-4352,-840,-2768,74,156,1,0
30.28204,-15820,-4468,-792,-2720,45,122,1,0
30.28204,-15892,-4344,-648,-2720,-27,283,1,0
30.41481,-15800,-4316,-808,-2720,38,418,1,0
30.41481,-15820,-4348,-672,-2736,-65,288,1,0
30.46459,-15892,-4408,-792,-2752,-99,232,1,0
30.46459,-15760,-4416,-824,-2752,6,29,1,0
30.49779,-15852,-4400,-788,-2752,-42,192,1,0
30.54757,-15840,-4384,-680,-2736,-81,126,1,0
30.54757,-15884,-4376,-708,-2736,-91,323,1,0
30.58076,-15772,-4268,-868,-2752,-51,240,1,0
30.59735,-15856,-4324,-720,-2720,59,-9,1,0
30.63054,-15900,-4444,-584,-2736,-80,176,1,0
30.68033,-15888,-4240,-940,-2752,65,144,1,0
30.68033,-15788,-4372,-808,-2768,111,8,1,0
30.71352,-15936,-4460,-712,-2736,156,-170,1,0
30.76331,-15904,-4320,-624,-2752,-1,16,1,0
30.76331,-15796,-4336,-836,-2752,85,189,1,0
30.86288,-15792,-4472,-796,-2720,70,217,1,0
30.89608,-15728,-4484,-724,-2736,43,104,1,0
30.94586,-15864,-4440,-636,-2736,-12,167,1,0
30.94586,-15840,-4256,-776,-2720,-77,348,1,0
30.99565,-15876,-4384,-772,-2752,63,91,1,0
30.99565,-15868,-4340,-912,-2736,68,246,1,0
31.02884,-15892,-4380,-772,-2720,115,217,1,0
31.04544,-15892,-4296,-748,-2752,96,162,1,0
31.07863,-15764,-4364,-644,-2768,3,295,1,0
31.12842,-15916,-4448,-812,-2736,79,54,1,0
31.12842,-15960,-4308,-544,-2736,-120,278,1,0
31.1782,-15920,-4276,-932,-2752,-39,474,1,0
31.2114,-15960,-4276,-556,-2768,-3,24,1,0
31.26118,-15972,-4520,-380,-2736,53,302,1,0
31.31096,-15832,-4372,-636,-2736,-138,411,1,0
31.31096,-16004,-4216,-816,-2704,-178,326,1,0
31.36075,-15752,-4272,-920,-2736,25,238,1,0
31.39394,-15784,-4328,-728,-2752,158,203,1,0
31.39394,-15776,-4516,-652,-2736,79,405,1,0
31.44373,-15928,-4272,-884,-2752,43,600,1,0
31.44373,-15856,-4276,-1040,-2736,270,187,1,0
31.49351,-15824,-4552,-656,-2752,73,356,1,0
31.57602,-15896,-4536,-872,-2704,-31,571,1,0
31.62578,-15704,-4448,-972,-2720,-54,320,1,0
31.62578,-15884,-4236,-704,-2720,-65,303,1,0
31.65897,-15792,-4276,-692,-2704,-49,334,1,0
31.67556,-15864,-4084,-980,-2736,2,527,1,0
31.70874,-15876,-4044,-1020,-2704,352,254,1,0
31.70874,-15896,-4052,-592,-2736,187,172,1,0
31.75852,-15864,-4012,-804,-2752,283,-162,1,0
31.7917,-16064,-4488,-608,-2736,370,-367,1,0
31.80829,-15788,-4380,-140,-2720,28,110,1,0
31.85806,-15948,-4304,-592,-2736,-157,423,1,0
31.89125,-15836,-4156,-1216,-2784,61,-4,1,0
31.94103,-15840,-4280,-608,-2752,122,-353,1,0
31.94103,-15940,-4404,-448,-2736,-100,59,1,0
31.97421,-15908,-4120,-580,-2720,-319,190,1,0
32.02399,-15932,-4040,-780,-2736,-159,8,1,0
32.02399,-15936,-4024,-756,-2736,-163,223,1,0
32.07376,-15928,-4064,-912,-2720,131,-29,1,0
32.12354,-15908,-3980,-780,-2736,202,189,1,0
32.12354,-15892,-4188,-744,-2720,335,111,1,0
32.2065,-15824,-4152,-476,-2752,403,76,1,0
32.25627,-15748,-4288,-516,-2736,350,612,1,0
32.25627,-15820,-4252,-532,-2720,398,109,1,0
32.30605,-15860,-4472,-432,-2688,273,-117,1,0
32.33923,-16016,-4256,-524,-2752,135,322,1,0
32.33923,-15924,-4004,-1016,-2736,262,432,1,0
32.389,-15804,-4020,-588,-2704,360,211,1,0
32.389,-15932,-4168,-660,-2752,250,368,1,0
32.43878,-16092,-3844,-580,-2688,220,175,1,0
32.47196,-15876,-4324,-668,-2736,281,-179,1,0
32.47196,-15828,-4116,-532,-2736,157,177,1,0
32.52174,-16020,-4120,-616,-2704,103,-114,1,0
32.5715,-16064,-4116,-600,-2736,101,-87,1,0
32.5715,-15936,-4040,-524,-2736,101,52,1,0
32.60469,-15812,-4148,-556,-2736,77,69,1,0
32.65446,-15952,-4140,-468,-2752,-14,145,1,0
32.65446,-15928,-4036,-684,-2720,114,169,1,0
32.70424,-15880,-4200,-264,-2736,53,77,1,0
32.75401,-15980,-3996,-592,-2720,82,210,1,0
32.75401,-16068,-4052,-676,-2736,212,108,1,0
32.83697,-16008,-4052,-380,-2736,397,163,1,0
32.88674,-15952,-4124,-300,-2736,296,298,1,0
32.88674,-15944,-4016,-524,-2704,184,135,1,0
32.93652,-15884,-4104,-476,-2720,145,347,1,0
32.9697,-15804,-4140,-444,-2752,222,86,1,0
32.98629,-15936,-4152,-432,-2736,105,233,1,0
33.01947,-15848,-4044,-424,-2704,149,98,1,0
33.06925,-15884,-4156,-424,-2720,59,32,1,0
33.06925,-16016,-4120,-420,-2704,51,95,1,0
33.11903,-16112,-3908,-384,-2736,22,205,1,0
33.15221,-15840,-4292,-216,-2704,-231,157,1,0
33.15221,-15972,-4096,-456,-2720,-177,136,1,0
33.20198,-15972,-3932,-388,-2688,92,12,1,0
33.23516,-15872,-4068,-496,-2720,3,327,1,0
33.23516,-15824,-4064,-492,-2704,163,117,1,0
33.28532,-15896,-4200,-224,-2720,43,401,1,0
33.3351,-15832,-3992,-344,-2704,-88,272,1,0
33.3351,-15988,-3932,-588,-2720,-6,179,1,0
33.38488,-15992,-4064,-652,-2704,200,143,1,0
33.41806,-15884,-4048,-448,-2704,-8,497,1,0
33.46783,-15840,-3984,-672,-2704,19,612,1,0
33.46783,-15956,-4156,-368,-2720,380,434,1,0
33.51761,-16072,-3872,-300,-2672,160,526,1,0
33.55079,-16072,-4084,-492,-2720,204,792,1,0
33.60057,-16128,-3936,-380,-2720,168,1145,1,0
33.61716,-15824,-3908,-488,-2704,81,1077,1,0
33.65034,-15684,-3972,-484,-2736,-90,668,1,0
33.70012,-15860,-3768,-836,-2704,-159,345,1,0
33.7333,-16064,-3588,-668,-2704,-110,276,1,0
33.7333,-16012,-3772,-844,-2688,-58,46,1,0
33.78308,-16136,-3688,-848,-2688,74,-231,1,0
33.83286,-16064,-3872,-464,-2688,-174,105,1,0
33.88263,-16080,-3668,-748,-2704,-360,392,1,0
33.91581,-16020,-3628,-808,-2704,-190,177,1,0
33.91581,-15856,-3804,-556,-2736,-231,199,1,0
33.96559,-16060,-3796,-556,-2688,-398,87,1,0
33.99877,-16236,-3332,-952,-2704,-448,677,1,0
34.01536,-16224,-3360,-1156,-2704,37,538,1,0
34.09832,-15956,-3720,-968,-2704,475,167,1,0
34.18128,-15988,-3932,-340,-2704,253,374,1,0
34.19787,-16108,-3600,-720,-2688,37,602,1,0
34.19787,-16032,-3480,-944,-2720,114,462,1,0
34.23105,-15896,-3636,-952,-2704,291,181,1,0
34.28083,-16100,-3804,-584,-2688,238,175,1,0
34.28083,-16156,-3696,-604,-2704,126,364,1,0
34.31401,-16160,-3620,-748,-2704,98,451,1,0
34.3306,-16028,-3696,-896,-2688,122,368,1,0
34.36378,-15952,-3752,-776,-2720,296,197,1,0
34.38078,-15928,-3816,-292,-2704,61,428,1,0
34.41396,-16104,-3696,-1220,-2672,-61,1021,1,0
34.49701,-16368,-3436,-1160,-2704,672,214,1,0
34.51194,-16032,-3820,-412,-2704,458,482,1,0
34.54682,-15864,-3880,-712,-2720,72,968,1,0
34.54682,-15736,-3456,-1056,-2704,226,810,1,0
34.59663,-16208,-3736,-1028,-2704,150,303,1,0
34.6291,-16092,-3640,-888,-2720,150,403,1,0
34.64643,-16100,-3800,-760,-2704,-53,504,1,0
34.67964,-16104,-3640,-1156,-2672,-54,491,1,0
34.67964,-15988,-3928,-1048,-2688,-25,471,1,0
34.72945,-16084,-3764,-1000,-2720,56,484,1,0
34.81246,-16008,-3856,-1104,-2704,19,679,1,0
34.82906,-16000,-3716,-1308,-2704,50,622,1,0
34.86226,-15992,-3788,-1344,-2704,398,402,1,0
34.87887,-15840,-3832,-1116,-2688,431,450,1,0
34.89547,-15820,-3980,-996,-2704,235,426,1,0
34.94528,-15832,-4000,-1204,-2704,79,373,1,0
34.96188,-15948,-4144,-1304,-2720,-42,154,1,0
34.99509,-16040,-4120,-1280,-2704,-127,210,1,0
35.0449,-16016,-4184,-1132,-2688,-139,-30,1,0
35.0449,-15856,-3956,-1276,-2704,-315,377,1,0
35.0947,-15932,-3780,-1324,-2720,-125,264,1,0
35.12791,-15920,-3972,-1156,-2736,55,-116,1,0
35.12791,-15824,-4072,-1076,-2704,8,344,1,0
35.17772,-16060,-4048,-1372,-2720,38,74,1,0
35.22752,-16068,-3792,-1336,-2704,134,178,1,0
35.22752,-15568,-3912,-1252,-2672,41,339,1,0
35.26073,-15880,-3844,-1228,-2688,-5,25,1,0
35.27733,-15936,-4028,-1156,-2704,-3,319,1,0
35.31054,-15952,-3768,-936,-2688,-210,478,1,0
35.36034,-15996,-3784,-940,-2704,-391,133,1,0
35.41015,-16068,-3732,-1472,-2688,-265,43,1,0
35.44336,-16068,-3752,-1168,-2688,4,-167,1,0
35.45996,-16048,-3848,-1024,-2736,-305,224,1,0
35.49316,-15972,-3872,-1272,-2688,-119,-27,1,0
35.54297,-15960,-3684,-1228,-2688,-160,271,1,0
35.54297,-15876,-3880,-1156,-2672,-5,27,1,0
35.59278,-16024,-3776,-1064,-2688,-112,193,1,0
35.62598,-16008,-3680,-1200,-2672,-29,153,1,0
35.62598,-15948,-3720,-1348,-2704,52,147,1,0
35.67579,-15932,-3808,-1304,-2672,184,-53,1,0
35.7256,-15904,-3980,-1208,-2688,159,5,1,0
35.77541,-16072,-3848,-1160,-2688,284,-82,1,0
35.80861,-16076,-4108,-712,-2688,192,-257,1,0
35.80861,-16096,-3892,-800,-2656,-264,621,1,0
35.85842,-15884,-3856,-1076,-2672,-235,212,1,0
35.89163,-15872,-3628,-1276,-2720,-156,310,1,0
35.90823,-16024,-4020,-968,-2688,78,-106,1,0
35.94144,-16004,-3840,-772,-2720,-186,247,1,0
35.99125,-16060,-3868,-1316,-2704,-221,293,1,0
36.02445,-15936,-3920,-1128,-2656,-30,-95,1,0
36.04105,-15860,-4012,-1024,-2688,-286,259,1,0
36.07426,-15876,-3820,-1288,-2656,-300,71,1,0
36.12406,-15984,-3748,-1284,-2672,-160,146,1,0
36.15727,-15928,-3940,-1088,-2688,-25,-11,1,0
36.15727,-16016,-4048,-860,-2672,-156,70,1,0
36.22368,-16056,-3976,-1080,-2688,-73,74,1,0
36.25688,-16040,-3740,-1128,-2656,-103,266,1,0
36.25688,-15864,-4020,-1144,-2672,15,133,1,0
36.30669,-15964,-3964,-1120,-2672,70,-52,1,0
36.3565,-15996,-3880,-896,-2704,-91,226,1,0
36.3565,-15888,-3832,-1164,-2672,-92,265,1,0
36.38923,-15948,-3836,-1340,-2704,48,63,1,0
36.43904,-16008,-3916,-808,-2672,-52,1,1,0
36.48884,-15988,-3788,-1060,-2672,-219,279,1,0
36.48884,-16048,-3816,-1312,-2656,-51,129,1,0
36.53864,-16036,-3840,-1000,-2656,-110,-26,1,0
36.57184,-16004,-4004,-1028,-2672,-107,179,1,0
36.60504,-15832,-3880,-1144,-2656,-64,147,1,0
36.62164,-15956,-3944,-892,-2672,-84,35,1,0
36.67144,-15980,-3756,-988,-2672,-137,238,1,0
36.70463,-15876,-3840,-984,-2656,-64,129,1,0
36.70463,-15836,-3920,-1064,-2672,34,40,1,0
36.80424,-16048,-4032,-960,-2656,-79,175,1,0
36.83744,-15956,-3940,-792,-2640,-129,91,1,0
36.83744,-15868,-3828,-1016,-2656,-275,338,1,0
36.88724,-16184,-3672,-1128,-2704,-18,-112,1,0
36.88724,-15992,-3932,-724,-2672,16,41,1,0
36.93704,-15832,-3996,-920,-2688,-235,310,1,0
36.98684,-15960,-3868,-1164,-2656,-87,18,1,0
37.02004,-15908,-3832,-752,-2656,-30,-128,1,0
37.02004,-16040,-3872,-792,-2672,-331,23,1,0
37.11964,-15996,-3836,-976,-2688,-498,-24,1,0
37.11964,-16112,-3616,-1204,-2672,-279,78,1,0
37.16945,-15916,-3860,-1032,-2640,8,-115,1,0
37.20264,-16056,-3984,-764,-2656,-88,21,1,0
37.20264,-16056,-3748,-1080,-2688,-188,374,1,0
37.25245,-15952,-3688,-1192,-2672,176,-42,1,0
37.28565,-15932,-3892,-716,-2688,-6,64,1,0
37.28565,-16052,-3964,-776,-2672,-37,-38,1,0
37.33545,-16076,-3912,-940,-2672,-246,271,1,0
37.38525,-16028,-3656,-1140,-2672,-89,194,1,0
37.38525,-16032,-3752,-896,-2656,136,-113,0,0
37.43505,-16120,-3884,-512,-2656,-74,71,0,0
37.46825,-16008,-3764,-944,-2672,-201,289,0,0
37.46825,-15988,-3660,-864,-2640,-10,50,0,0
37.51805,-15924,-3688,-756,-2656,-73,33,0,0
37.56785,-15968,-3836,-764,-2672,-52,-1,0,0
37.56785,-16068,-3812,-784,-2672,-175,162,0,0
37.60105,-16000,-3896,-844,-2640,-52,98,0,0
37.65085,-15964,-3780,-688,-2720,-110,145,0,0
37.70065,-16016,-3928,-952,-2656,-96,299,0,0
37.70065,-16236,-3772,-964,-2688,83,34,0,0
37.75045,-15964,-3760,-840,-2688,57,208,0,0
37.78365,-15944,-3940,-800,-2672,-194,288,0,0
37.80025,-16048,-3712,-1176,-2672,-17,149,0,0
37.83345,-16060,-3796,-908,-2672,19,172,0,0
37.86665,-15896,-3812,-648,-2656,-136,253,0,0
37.91645,-15896,-3836,-572,-2656,-183,177,0,0
37.93306,-16084,-3752,-828,-2672,-146,239,0,0
37.96626,-15952,-3720,-884,-2672,-78,267,0,0
38.04926,-15968,-3976,-1024,-2640,-18,220,0,0
38.09906,-16036,-3788,-860,-2672,-115,337,0,0
38.11566,-15916,-3784,-920,-2688,-21,145,0,0
38.14886,-15888,-3864,-944,-2656,-46,203,0,0
38.14886,-16008,-3724,-896,-2640,65,115,0,0
38.18206,-15984,-3796,-640,-2640,18,131,0,0
38.19865,-16044,-3764,-840,-2672,-102,289,0,0
38.23138,-15900,-3836,-1072,-2656,-56,138,0,0
38.28119,-15980,-3880,-644,-2672,-115,82,0,0
38.28119,-16068,-3636,-828,-2656,-272,300,0,0
38.33091,-16028,-3752,-1088,-2640,-175,123,0,0
38.38073,-16016,-3764,-904,-2640,-30,143,0,0
38.41392,-16184,-3856,-872,-2656,-52,224,0,0
38.43052,-15976,-3648,-804,-2640,-29,390,0,0
38.46365,-15952,-3876,-784,-2656,54,159,0,0
38.51344,-16016,-3844,-732,-2672,6,276,0,0
38.51344,-16184,-3844,-900,-2656,-23,211,0,0
38.56319,-16000,-3856,-920,-2624,-6,258,0,0
38.59637,-16128,-3768,-912,-2624,-31,271,0,0
38.62955,-15996,-3716,-856,-2672,45,141,0,0
38.64614,-15660,-3940,-684,-2640,-148,159,0,0
38.69591,-16080,-3796,-976,-2656,-274,166,0,0
38.72909,-16072,-3748,-872,-2656,-192,59,0,0
38.77886,-16020,-3804,-776,-2688,-265,146,0,0
38.77886,-16084,-3608,-836,-2672,-272,137,0,0
38.81204,-16104,-3568,-968,-2640,-267,245,0,0
38.82862,-16024,-3748,-828,-2640,-51,26,0,0
38.8784,-15956,-3856,-776,-2656,-80,56,0,0
38.91157,-16044,-3808,-676,-2624,-305,302,0,0
38.96134,-15908,-3760,-1120,-2640,-273,221,0,0
38.99453,-15976,-3668,-876,-2656,-130,73,0,0
39.01112,-16080,-3724,-1040,-2656,-85,273,0,0
39.0443,-16152,-3712,-896,-2672,-79,420,0,0
39.09407,-16164,-3560,-1044,-2656,-72,702,0,0
39.09407,-15824,-3820,-992,-2640,23,317,0,0
39.14384,-15848,-3608,-896,-2656,-134,209,0,0
39.17701,-16212,-3748,-996,-2672,-149,128,0,0
39.22678,-16064,-3704,-916,-2640,-265,156,0,0
39.22678,-16016,-3700,-1064,-2640,-228,199,0,0
39.27655,-15944,-3732,-988,-2624,-198,106,0,0
39.32632,-16040,-3660,-956,-2624,-96,67,0,0
39.3595,-16080,-3656,-792,-2656,-126,87,0,0
39.40927,-15988,-3648,-1064,-2640,-106,269,0,0
39.40927,-15928,-3728,-952,-2640,-11,250,0,0
39.45904,-15960,-3716,-1244,-2656,-77,248,0,0
39.49222,-15984,-3768,-928,-2624,39,-87,0,0
39.49222,-16116,-3616,-992,-2640,-104,153,0,0
39.54198,-16008,-3732,-1064,-2656,13,115,0,0
39.59175,-16024,-3564,-1136,-2656,-531,-141,0,0
39.59175,-16076,-3464,-1344,-2656,-165,380,0,0
39.62493,-16008,-3692,-692,-2624,-120,177,0,0
39.72447,-16012,-3616,-964,-2640,-261,151,0,0
39.72447,-16076,-3724,-820,-2640,-168,26,0,0
39.77424,-16244,-3600,-828,-2624,-200,273,0,0
39.77424,-16020,-3812,-996,-2640,-41,85,0,0
39.80742,-16264,-3844,-260,-2656,-670,1074,0,0
39.85719,-16300,-3848,-1020,-2640,-1363,3856,0,0
39.85719,-15876,-3100,-952,-2640,-1301,2305,0,0
39.90696,-16240,-3432,-2008,-2640,-414,1248,0,0
39.95673,-15836,-3096,-2004,-2608,52,334,0,0
40.03969,-15976,-3412,-1656,-2672,439,-472,0,0
40.03969,-16184,-3456,-1492,-2624,231,-4,0,0
40.08945,-16060,-3708,-1348,-2672,5,69,0,0
40.08945,-16068,-3552,-1384,-2640,-92,196,0,0
40.13922,-16016,-3348,-1512,-2640,-125,57,0,0
40.1724,-15900,-3464,-1720,-2640,-46,2,0,0
40.1724,-16120,-3536,-1316,-2608,-25,-141,0,0
40.22217,-16116,-3408,-1444,-2640,-127,25,0,0
40.22217,-16084,-3484,-1512,-2656,-44,76,0,0
40.27194,-15896,-3400,-1288,-2608,-81,164,0,0
40.30498,-16004,-3568,-1328,-2640,11,-141,0,0
40.30498,-16268,-3560,-1272,-2656,-47,113,0,0
40.35489,-16160,-3484,-1532,-2624,-76,-44,0,0
40.40466,-16052,-3676,-1284,-2640,-136,191,0,0
40.40466,-16040,-3536,-1480,-2640,-138,158,0,0
40.43784,-16044,-3312,-1564,-2624,-266,283,0,0
40.4876,-16032,-3580,-1612,-2656,-53,219,0,0
40.53738,-15924,-3488,-1172,-2624,-175,423,0,0
40.57056,-16100,-3588,-1444,-2624,-200,192,0,0
40.58715,-16156,-3428,-1308,-2624,-228,109,0,0
40.62033,-16076,-3468,-1568,-2656,-261,239,0,0
40.6701,-16000,-3428,-1628,-2640,-51,73,0,0
40.6701,-15972,-3620,-1404,-2656,17,41,0,0
40.71987,-16008,-3516,-1364,-2624,-170,311,0,0
40.76964,-16004,-3572,-1444,-2640,-131,23,0,0
40.76964,-16060,-3376,-1508,-2672,-182,-60,0,0
40.85258,-16184,-3564,-1240,-2640,-87,205,0,0
40.85258,-16132,-3424,-1232,-2640,-28,241,0,0
40.88577,-16004,-3448,-1380,-2624,-138,204,0,0
40.98531,-16024,-3600,-1448,-2672,-39,96,0,0
41.01848,-16072,-3484,-1288,-2608,-24,8,0,0
41.03507,-16164,-3532,-1336,-2608,-152,222,0,0
41.08484,-16048,-3548,-1492,-2640,-190,199,0,0
41.08484,-15888,-3524,-1272,-2624,-404,149,0,0
41.11802,-16112,-3352,-1360,-2624,-310,14,0,0
41.11802,-16128,-3440,-1436,-2624,-159,156,0,0
41.16779,-16136,-3616,-1304,-2624,-160,68,0,0
41.21756,-16068,-3520,-1544,-2640,-5,38,0,0
41.21756,-16084,-3700,-1224,-2608,-3,28,0,0
41.25074,-16040,-3620,-948,-2640,-206,295,0,0
41.30051,-15892,-3428,-1432,-2608,-334,104,0,0
41.30051,-15948,-3404,-1684,-2640,-83,-144,0,0
41.35028,-15972,-3596,-1220,-2640,-27,-55,0,0
41.38346,-16252,-3784,-1148,-2640,-142,236,0,0
41.483,-16052,-3664,-1076,-2624,-279,192,0,0
41.483,-15992,-3608,-1188,-2656,-264,174,0,0
41.61572,-16044,-3548,-1368,-2608,-177,226,0,0
41.61572,-16064,-3628,-1328,-2656,-64,-239,0,0
41.66549,-16012,-3676,-1120,-2640,-185,-31,0,0
41.66549,-16036,-3576,-1416,-2592,-420,344,0,0
41.69867,-15764,-3752,-1348,-2640,-361,-120,0,0
41.69867,-16056,-3612,-1408,-2640,-437,-119,0,0
41.74843,-16232,-3620,-1276,-2624,-146,-115,0,0
41.7982,-16096,-3780,-1108,-2656,-392,252,0,0
41.7982,-16084,-3636,-1308,-2624,-303,-18,0,0
41.83138,-15952,-3560,-1212,-2608,-295,265,0,0
41.83138,-16032,-3568,-1460,-2640,-196,178,0,0
41.88115,-15972,-3628,-1240,-2672,32,-84,0,0
41.91433,-15956,-3756,-1372,-2640,-154,211,0,0
41.91433,-15916,-3784,-1340,-2640,-158,-50,0,0
41.98069,-16032,-3732,-1132,-2624,-198,-82,0,0
42.01387,-16088,-3760,-1212,-2624,-250,130,0,0
42.01387,-16028,-3912,-1316,-2624,-92,-60,0,0
42.06364,-16000,-3656,-1076,-2624,-102,270,0,0
42.06364,-15864,-3748,-1160,-2608,-256,349,0,0
42.11341,-16124,-3636,-1392,-2624,-103,34,0,0
42.14659,-16164,-3752,-1148,-2624,-111,196,0,0
42.14659,-15928,-3644,-1256,-2640,-172,415,0,0
42.19636,-15836,-3820,-1132,-2608,-79,-83,0,0
42.24651,-16088,-3680,-1164,-2640,-122,59,0,0
42.29628,-16004,-3620,-1212,-2608,-164,125,0,0
42.32946,-16012,-3796,-1348,-2624,-108,99,0,0
42.37923,-16008,-3792,-1244,-2640,-128,267,0,0
42.37923,-15932,-3748,-1352,-2608,-154,343,0,0
42.42899,-16064,-3752,-1280,-2624,-65,171,0,0
42.46217,-16040,-3700,-1160,-2608,-16,166,0,0
42.46217,-15956,-3792,-1016,-2592,-175,283,0,0
42.51194,-16032,-3628,-1368,-2624,-199,77,0,0
42.56171,-16068,-3668,-1288,-2608,-67,-74,0,0
42.56171,-16108,-3756,-1324,-2640,-169,141,0,0
42.64465,-16068,-3812,-1136,-2592,-146,137,0,0
42.69442,-15940,-3748,-1192,-2624,-93,29,0,0
42.69442,-15984,-3608,-1404,-2592,-47,155,0,0
42.74418,-16044,-3676,-1268,-2624,-17,78,0,0
42.74418,-15952,-3872,-1196,-2592,-70,196,0,0
42.77736,-15992,-3684,-1232,-2624,-16,5,0,0
42.82712,-16088,-3864,-896,-2608,-127,123,0,0
42.82712,-16008,-3676,-1232,-2624,-324,454,0,0
42.87689,-16044,-3752,-1324,-2640,-239,191,0,0
42.87689,-16020,-3732,-1352,-2624,-91,56,0,0
42.95983,-16064,-3780,-1252,-2608,-253,309,0,0
43.0096,-16016,-3732,-1332,-2592,-230,63,0,0
43.0096,-16036,-3608,-1196,-2608,-270,121,0,0
43.05936,-15992,-3880,-1324,-2608,-191,85,0,0
43.09254,-16068,-3700,-1028,-2624,-336,73,0,0
43.09254,-16048,-3836,-1024,-2608,-472,517,0,0
43.1423,-16000,-3656,-1380,-2608,-386,453,0,0
43.19207,-15784,-3728,-1388,-2592,-183,147,0,0
43.19207,-16008,-3684,-1352,-2608,-229,330,0,0
43.27501,-15836,-3752,-1184,-2608,-368,212,0,0
43.2916,-16112,-3556,-1332,-2608,-301,554,0,0
43.35796,-15924,-3836,-1192,-2624,-301,204,0,0
43.40772,-15904,-3732,-1540,-2608,-172,165,0,0
43.45749,-16044,-3844,-1372,-2608,-107,173,0,0
43.45749,-15868,-3708,-1288,-2640,-309,395,0,0
43.50726,-16064,-3832,-1476,-2608,-270,408,0,0
43.50726,-15972,-3780,-1504,-2608,-317,433,0,0
43.5902,-15988,-3780,-1428,-2592,-333,244,0,0
43.5902,-15988,-3924,-1308,-2608,-164,-106,0,0
43.63997,-16172,-3772,-1172,-2624,-336,231,0,0
43.68974,-15984,-3592,-1468,-2624,-490,366,0,0
43.68974,-15944,-3676,-1548,-2608,-243,62,0,0
43.7233,-15944,-3772,-1440,-2624,-88,-91,0,0
43.7233,-15888,-3820,-1164,-2608,-351,210,0,0
43.77306,-16064,-3656,-1592,-2576,-373,204,0,0
43.82289,-15904,-3872,-1328,-2608,1,-193,0,0
43.82289,-15996,-3920,-1004,-2592,-161,157,0,0
43.90586,-16088,-3732,-1324,-2592,-235,335,0,0
43.90586,-15992,-3672,-1528,-2592,-189,162,0,0
43.95564,-15924,-3748,-1584,-2576,-27,134,0,0
43.95564,-16064,-3820,-1340,-2576,37,117,0,0
44.00542,-15968,-3644,-1164,-2592,-68,153,0,0
44.03861,-15984,-3724,-1196,-2576,-94,154,0,0
44.03861,-15936,-3712,-1108,-2576,-133,94,0,0
44.08839,-15952,-3708,-1588,-2592,-80,153,0,0
44.08839,-16024,-3988,-1264,-2624,44,-119,0,0
44.13818,-16056,-4020,-1180,-2592,-204,75,0,0
44.17137,-15892,-3852,-1400,-2608,-190,10,0,0
44.18796,-15984,-3824,-1392,-2576,-495,-795,0,0
44.22115,-15956,-3836,-1704,-2576,-109,-125,0,0
44.27093,-15812,-3860,-1164,-2608,-76,-19,0,0
44.27093,-15520,-3816,-1304,-2608,-278,-127,0,0
44.32071,-15996,-3872,-1352,-2576,-227,-27,0,0
44.3539,-16000,-3752,-1196,-2592,-205,198,0,0
44.3539,-15900,-3960,-1276,-2560,-292,215,0,0
44.40369,-15864,-3840,-1420,-2624,-111,-100,0,0
44.45346,-16032,-3900,-1068,-2608,-87,-120,0,0
44.48666,-16044,-3848,-1248,-2592,-271,300,0,0
44.48666,-16032,-3796,-1416,-2576,-128,261,0,0
44.53644,-15872,-3872,-1096,-2592,-28,3,0,0
44.58622,-15848,-4008,-1264,-2592,-88,133,0,0
44.636,-16020,-3828,-1304,-2592,-62,146,0,0
44.636,-16004,-3924,-1164,-2592,-30,50,0,0
44.66919,-15928,-3920,-1172,-2608,-60,66,0,0
44.71898,-15960,-3824,-1268,-2576,-95,97,0,0
44.76876,-15948,-3968,-1248,-2592,36,-68,0,0
44.76876,-16004,-3924,-920,-2592,-113,36,0,0
44.85172,-16104,-3976,-1116,-2608,-215,313,0,0
44.90151,-15940,-3884,-1296,-2560,-56,-130,0,0
44.90151,-15940,-3908,-992,-2592,75,-146,0,0
44.95129,-15960,-3940,-1004,-2592,-185,255,0,0
44.95129,-16008,-3812,-1324,-2592,-136,86,0,0
44.98448,-15916,-3928,-1004,-2624,6,-72,0,0
45.03426,-15980,-3868,-992,-2608,14,-49,0,0
45.03426,-15976,-4036,-980,-2592,-121,26,0,0
45.08405,-16092,-3836,-924,-2608,-140,4,0,0
45.11723,-15960,-4024,-1156,-2608,-154,20,0,0
45.11723,-15908,-3932,-1048,-2608,-104,-88,0,0
45.16702,-15964,-3888,-1164,-2592,-99,276,0,0
45.2168,-16160,-4304,-960,-2624,94,-95,0,0
45.24998,-15768,-3744,-1160,-2576,49,187,0,0
45.29977,-15940,-4060,-1208,-2592,-52,133,0,0
45.29977,-16004,-3932,-888,-2576,-9,12,0,0
45.34955,-15984,-3908,-1216,-2560,-50,161,1,0
45.39933,-15940,-3844,-880,-2592,-10,17,1,0
45.39933,-15864,-4124,-1072,-2576,-84,-1,1,0
45.43224,-16004,-3984,-760,-2624,-84,-35,1,0
45.4823,-16096,-3880,-1120,-2576,-104,-47,1,0
45.4823,-15856,-4104,-836,-2592,-17,177,1,0
45.58186,-15816,-3840,-956,-2576,-226,171,1,0
45.61505,-16036,-3824,-1308,-2592,-100,25,1,0
45.61505,-15820,-4056,-920,-2576,-102,-518,1,0
45.66483,-16016,-4000,-872,-2576,64,185,1,0
45.71461,-15948,-3992,-804,-2576,5,218,1,0
45.71461,-16056,-4020,-956,-2592,60,192,1,0
45.7478,-15992,-4000,-928,-2560,17,204,1,0
45.79758,-15856,-3944,-796,-2560,-118,422,1,0
45.84737,-15888,-3976,-976,-2592,-95,261,1,0
45.88055,-15884,-3972,-1052,-2592,16,111,1,0
45.89715,-15888,-3964,-832,-2592,-29,262,1,0
45.98012,-15936,-3960,-864,-2576,28,151,1,0
45.98012,-16024,-3964,-984,-2592,-16,196,1,0
46.02991,-16000,-3940,-696,-2592,28,181,1,0
46.0631,-15896,-4020,-1124,-2560,-26,168,1,0
46.0631,-15892,-3964,-1012,-2608,50,-38,1,0
46.11288,-16008,-3944,-828,-2576,-57,-5,1,0
46.11288,-15956,-4104,-1120,-2576,-85,104,1,0
46.16266,-15944,-4136,-916,-2576,38,131,1,0
46.16266,-15948,-4072,-692,-2560,-85,112,1,0
46.19585,-15972,-4032,-1064,-2592,-49,-172,1,0
46.24564,-15888,-4008,-808,-2576,-111,196,1,0
46.24564,-16016,-4032,-1016,-2576,-74,302,1,0
46.29541,-15820,-4040,-644,-2576,-1,32,1,0
46.3452,-15928,-4028,-932,-2576,-34,215,1,0
46.37839,-16032,-3996,-944,-2592,-6,210,1,0
46.37839,-15904,-4004,-1104,-2576,50,115,1,0
46.42817,-16004,-3988,-844,-2544,62,161,1,0
46.47795,-15932,-4112,-844,-2608,14,131,1,0
46.47795,-15964,-4036,-752,-2576,-80,249,1,0
46.56092,-15960,-3884,-1000,-2560,-80,177,1,0
46.6107,-15976,-3904,-1044,-2576,147,-53,1,0
46.6107,-15980,-4104,-604,-2576,116,-7,1,0
46.66048,-16084,-4044,-628,-2576,-40,222,1,0
46.66048,-15972,-3984,-1116,-2544,47,-17,1,0
46.71027,-15872,-3816,-988,-2544,204,-109,1,0
46.72685,-15840,-3968,-1040,-2608,493,-439,1,0
46.74344,-16044,-4192,-632,-2576,458,-525,1,0
46.8762,-16100,-4208,-524,-2608,197,-344,1,0
46.89279,-15752,-4076,-688,-2576,-21,146,1,0
46.92598,-15924,-3988,-808,-2576,274,-318,1,0
46.94257,-15872,-4076,-680,-2576,249,-372,1,0
46.97576,-16072,-4092,-732,-2576,324,-366,1,0
47.00895,-15804,-4132,-420,-2608,430,-573,1,0
47.00895,-15976,-4244,-392,-2576,416,-381,1,0
47.05873,-16060,-4236,-328,-2608,361,-491,1,0
47.05873,-16020,-4248,-420,-2576,255,-472,1,0
47.10851,-15792,-4248,-276,-2592,185,-137,1,0
47.1417,-15968,-4268,-60,-2560,-63,159,1,0
47.15829,-15968,-4204,-76,-2560,-121,156,1,0
47.19149,-15856,-4092,-276,-2576,-1,-3,1,0
47.24127,-15900,-4124,-300,-2560,81,178,1,0
47.24127,-15952,-4104,-204,-2592,373,-17,1,0
47.29105,-15828,-4328,-136,-2576,363,-56,1,0
47.32424,-15856,-4252,-264,-2592,286,-62,1,0
47.34083,-15836,-4368,36,-2576,77,70,1,0
47.37402,-15864,-4328,-676,-2560,79,177,1,0
47.40721,-15772,-4316,-156,-2544,287,-333,1,0
47.42381,-15808,-4252,152,-2560,-62,261,1,0
47.45699,-15776,-4260,-228,-2576,-177,169,1,0
47.50677,-15992,-4264,-420,-2560,65,-204,1,0
47.50677,-15864,-4260,120,-2544,30,37,1,0
47.55656,-15888,-4096,-84,-2608,-48,118,1,0
47.60634,-15876,-4128,156,-2592,-94,116,1,0
47.60634,-15936,-4192,-72,-2576,9,-82,1,0
47.63952,-15920,-4116,-200,-2544,65,-76,1,0
47.68931,-15980,-4220,40,-2560,72,166,1,0
47.73909,-15976,-4228,-172,-2560,156,27,1,0
47.73909,-15948,-4196,120,-2560,163,11,1,0
47.82206,-15924,-4316,184,-2560,101,179,1,0
47.87185,-15996,-4092,-56,-2592,21,238,1,0
47.87185,-15916,-3956,-44,-2560,80,295,1,0
47.92163,-15832,-4072,-80,-2576,72,299,1,0
47.92163,-15972,-4112,-64,-2592,268,-24,1,0
47.95481,-15980,-4280,444,-2608,88,-205,1,0
48.0046,-16144,-4104,56,-2576,-301,300,1,0
48.0046,-15984,-4032,-192,-2576,-9,-140,1,0
48.05437,-15804,-4148,196,-2544,72,-32,1,0
48.08757,-16032,-3736,76,-2544,-258,247,1,0
48.10416,-15844,-4088,68,-2576,-86,-112,1,0
48.18713,-16040,-4012,156,-2592,-178,127,1,0
48.23692,-16044,-4028,60,-2576,-106,-29,1,0
48.27011,-15908,-3948,196,-2576,-134,-24,1,0
48.27011,-15876,-4032,20,-2576,-137,173,1,0
48.31989,-16004,-4048,260,-2560,82,-116,1,0
48.31989,-15992,-3996,128,-2544,52,110,1,0
48.35307,-15960,-4012,-44,-2560,118,64,1,0
48.35307,-15900,-4120,52,-2560,-29,117,1,0
48.41945,-15916,-4104,276,-2528,3,26,1,0
48.50243,-15888,-4036,412,-2560,-197,96,1,0
48.50243,-15876,-4004,84,-2576,-256,64,1,0
48.53561,-15884,-3996,120,-2576,-117,-23,1,0
48.53561,-16036,-4016,272,-2560,-139,-127,1,0
48.58539,-15952,-3928,448,-2576,-218,20,1,0
48.58539,-15952,-4064,88,-2576,-153,181,1,0
48.63518,-16092,-3984,-136,-2576,71,-223,1,0
48.68496,-16036,-4100,304,-2544,12,112,1,0
48.68496,-15916,-4008,464,-2544,-51,128,1,0
48.76793,-15896,-4000,244,-2576,-101,75,1,0
48.76793,-15900,-4020,220,-2576,-48,50,1,0
48.81771,-15840,-4040,264,-2560,-131,125,1,0
48.81771,-15956,-3952,264,-2592,-34,91,1,0
48.8675,-15940,-4004,336,-2560,-15,82,1,0
48.90069,-16040,-3960,292,-2560,14,75,1,0
48.90069,-16116,-4104,-28,-2576,37,305,1,0
48.95047,-16004,-3908,108,-2576,93,359,1,0
48.95047,-15800,-4164,268,-2544,69,158,1,0
49.00025,-15960,-3920,192,-2560,-2,255,1,0
49.03344,-16028,-3868,428,-2528,-41,250,1,0
49.05003,-15976,-3912,104,-2576,-146,279,1,0
49.133,-15972,-3944,200,-2544,5,130,1,0
49.16619,-16056,-4036,164,-2576,84,170,1,0
49.18279,-15928,-4116,596,-2560,58,117,1,0
49.21597,-15932,-4072,308,-2560,-174,112,1,0
49.21597,-16180,-4056,164,-2560,-126,152,1,0
49.26575,-16060,-3888,324,-2576,19,39,1,0
49.2988,-15700,-4096,520,-2560,-177,188,1,0
49.2988,-16012,-3836,-344,-2528,-142,332,1,0
49.34872,-15884,-4196,132,-2528,156,40,1,0
49.3985,-15920,-4300,136,-2560,203,191,1,0
49.3985,-15924,-4256,388,-2544,1,346,1,0
49.44828,-16024,-3952,80,-2560,97,326,1,0
49.44828,-15868,-4204,260,-2576,183,60,1,0
49.48148,-16080,-4164,272,-2576,84,191,1,0
49.53126,-16008,-4128,348,-2576,132,26,1,0
49.53126,-15900,-4124,160,-2528,-54,311,1,0
49.58104,-15876,-3992,180,-2576,3,329,1,0
49.61423,-15864,-4072,156,-2544,116,11,1,0
49.63082,-15996,-3952,280,-2528,65,-9,1,0
49.66401,-15940,-4204,220,-2560,41,-15,1,0
49.76358,-15820,-4140,376,-2560,-24,133,1,0
49.76358,-15848,-4168,332,-2576,-31,-58,1,0
49.79663,-15956,-4096,356,-2560,-154,67,1,0
49.81336,-15944,-4164,484,-2544,-163,34,1,0
49.84654,-15956,-4040,596,-2544,-291,152,1,0
49.89632,-15980,-4064,480,-2576,-254,232,1,0
49.89632,-15884,-3996,576,-2560,-109,-121,1,0
49.94611,-16072,-4116,304,-2544,-254,288,1,0
49.94611,-15960,-3912,120,-2560,23,189,1,0
49.97929,-15868,-4052,460,-2544,76,182,1,0
50.02908,-15912,-4044,344,-2576,84,228,1,0
50.07886,-15824,-3944,376,-2528,119,199,1,0
50.11205,-15904,-4152,228,-2560,28,148,1,0
50.11205,-15984,-4004,188,-2528,117,91,1,0
50.16183,-15864,-4140,528,-2528,25,136,1,0
50.16183,-15888,-4368,664,-2544,-224,164,1,0
50.21161,-16004,-3984,156,-2560,-189,192,1,0
50.2448,-16052,-3880,284,-2560,-25,92,1,0
50.2448,-15908,-3936,180,-2544,96,121,1,0
50.29459,-16052,-4000,368,-2528,177,-62,1,0
50.39415,-15956,-4028,472,-2512,-42,122,1,0
50.39415,-15924,-3812,152,-2512,34,140,1,0
50.44393,-15936,-3800,312,-2496,283,-178,1,0
50.47712,-15900,-4036,468,-2512,242,-267,1,0
50.47712,-16336,-4208,144,-2528,41,-280,1,0
50.52691,-16252,-3492,692,-2544,353,-140,1,0
50.5601,-15744,-4032,784,-2528,157,428,1,0
50.57669,-15768,-3908,476,-2528,-42,171,1,0
50.60988,-15852,-3984,400,-2528,23,-25,1,0
50.60988,-16100,-3984,728,-2544,8,61,1,0
50.65966,-15816,-3640,580,-2528,-27,-301,1,0
50.65966,-15900,-4080,736,-2560,-74,7,1,0
50.70944,-16080,-3792,404,-2528,108,108,1,0
50.74263,-16068,-4068,540,-2544,175,112,1,0
50.79096,-16124,-3976,620,-2528,213,306,1,0
50.79096,-15896,-4024,756,-2528,101,350,1,0
50.84219,-15812,-3980,712,-2544,20,199,1,0
50.87538,-15976,-3852,492,-2560,-53,119,1,0
50.92517,-15940,-3908,392,-2544,12,151,1,0
50.92517,-15904,-3864,756,-2544,22,96,1,0
50.97495,-15816,-3956,680,-2528,-75,44,1,0
51.12429,-15928,-3952,564,-2528,-146,288,1,0
51.12429,-16116,-3924,684,-2544,115,36,1,0
51.20725,-16076,-3804,620,-2528,61,70,1,0
51.24044,-15908,-3908,732,-2544,-122,402,1,0
51.24044,-15900,-3912,636,-2560,39,286,1,0
51.29023,-15856,-4040,584,-2512,22,195,1,0
51.29023,-16168,-3844,532,-2560,147,15,1,0
51.34001,-16012,-3876,988,-2560,139,75,1,0
51.34001,-15972,-4044,532,-2544,59,411,1,0
51.42298,-15968,-3832,648,-2528,211,-38,1,0
51.47276,-16176,-3780,844,-2528,73,138,1,0
51.47276,-15980,-4032,1064,-2512,-223,415,1,0
51.50595,-15884,-4020,568,-2528,-167,416,1,0
51.50595,-15700,-3860,412,-2512,-82,40,1,0
51.55574,-15992,-4012,808,-2528,104,-17,1,0
51.55574,-16108,-3868,732,-2528,-68,329,1,0
51.60552,-16056,-3816,308,-2512,37,295,1,0
51.60552,-15956,-4092,616,-2544,128,61,1,0
51.6553,-15944,-3916,752,-2512,-119,344,1,0
51.73827,-16076,-3800,468,-2544,-28,294,1,0
51.73827,-15960,-3892,700,-2560,-38,177,1,0
51.78759,-15880,-3908,524,-2544,-132,378,1,0
51.78759,-16028,-3800,580,-2544,-37,172,1,0
51.83739,-16164,-3864,508,-2544,29,267,1,0
51.87058,-15884,-3992,448,-2512,121,159,1,0
51.87058,-15996,-3992,720,-2512,-42,356,1,0
51.92038,-15884,-3896,456,-2512,22,266,1,0
51.92038,-15916,-4024,428,-2544,22,158,1,0
51.97017,-15916,-3924,640,-2544,31,191,1,0
51.97017,-15960,-4076,752,-2496,-78,322,1,0
52.01996,-16040,-3780,492,-2512,6,276,1,0
52.01996,-15820,-3960,572,-2528,40,198,1,0
52.05315,-16000,-3892,632,-2512,-13,214,1,0
52.10295,-15896,-4084,580,-2512,-106,202,1,0
52.10295,-15936,-3892,384,-2544,-45,250,1,0
52.13614,-16004,-3952,444,-2544,5,34,1,0
52.13614,-16204,-3892,608,-2528,62,59,1,0
52.18594,-15916,-3980,672,-2512,-99,287,1,0
52.20253,-15876,-3924,468,-2528,-218,148,1,0
52.23573,-16012,-3876,496,-2544,-104,129,1,0
52.28552,-16164,-3832,460,-2512,-65,189,1,0
52.28552,-16024,-3908,376,-2544,55,290,1,0
52.33531,-15940,-3912,496,-2512,155,233,1,0
52.3685,-15864,-4032,568,-2528,126,273,1,0
52.3851,-15932,-3988,920,-2528,10,228,1,0
52.41829,-15896,-3940,620,-2528,-159,142,1,0
52.45149,-16016,-3900,344,-2512,-61,204,1,0
52.45149,-15880,-3980,792,-2496,-60,-41,1,0
52.50128,-16008,-3924,468,-2512,-309,241,1,0
52.55107,-16016,-3912,544,-2512,-151,192,1,0
52.55107,-15916,-3864,600,-2528,-80,80,1,0
52.60086,-15968,-3912,736,-2496,-174,-10,1,0
52.63406,-16020,-3836,408,-2512,-235,232,1,0
52.65066,-15888,-3868,504,-2496,-5,-81,1,0
52.68385,-16076,-4008,784,-2512,-116,-154,1,0
52.73364,-16012,-3952,728,-2528,-228,-6,1,0
52.73364,-15904,-4024,552,-2528,-208,-32,1,0
52.78344,-15944,-3864,612,-2512,-44,-293,1,0
52.86642,-16064,-3924,756,-2496,-313,170,1,0
52.86642,-15988,-3924,728,-2544,-266,-46,1,0
52.89962,-16008,-3924,856,-2480,-431,208,1,0
52.94941,-16240,-3960,388,-2544,-337,347,1,0
52.94941,-16236,-3656,976,-2544,-148,150,1,0
52.9992,-16020,-3652,720,-2512,-245,377,1,0
53.04899,-15904,-3600,480,-2512,-11,207,1,0
53.04899,-15968,-3864,844,-2512,117,-102,0,0
53.08218,-16064,-4000,836,-2496,-109,212,0,0
53.13198,-16120,-3720,368,-2528,-129,435,0,0
53.13198,-16144,-3676,704,-2512,202,72,0,0
53.18177,-16004,-3800,888,-2544,-156,602,0,0
53.21447,-16008,-3808,524,-2480,-178,604,0,0
53.23107,-15976,-3696,384,-2496,31,398,0,0
53.28082,-16008,-3752,704,-2496,114,240,0,0
53.31401,-15888,-3776,584,-2480,-64,300,0,0
53.31401,-16068,-3620,384,-2496,-106,375,0,0
53.36378,-15944,-3676,632,-2544,-12,244,0,0
53.39696,-15868,-3756,620,-2528,18,133,0,0
53.41355,-16032,-3760,376,-2496,-113,239,0,0
53.44673,-16076,-3840,480,-2480,-56,135,0,0
53.4965,-15988,-3808,628,-2512,-73,187,0,0
53.52968,-16112,-3832,412,-2512,-103,230,0,0
53.54627,-16112,-3824,368,-2544,25,77,0,0
53.57944,-15908,-3872,708,-2496,-100,123,0,0
53.62922,-16040,-3768,552,-2528,-97,247,0,0
53.62922,-15988,-3692,560,-2544,-37,28,0,0
53.71217,-16040,-3808,600,-2544,-125,295,0,0
53.72876,-16076,-3736,380,-2496,90,85,0,0
53.76194,-16048,-3728,824,-2496,113,-61,0,0
53.76194,-15920,-3900,660,-2528,-166,384,0,0
53.81171,-15944,-3760,376,-2528,-113,121,0,0
53.84489,-16080,-3736,556,-2528,19,89,0,0
53.86148,-15904,-3932,728,-2496,-83,174,0,0
53.89466,-16056,-3784,612,-2528,-190,226,0,0
53.94443,-15968,-3780,336,-2512,-42,90,0,0
53.94443,-16108,-3772,620,-2480,-90,199,0,0
54.04397,-15968,-3872,720,-2512,-116,213,0,0
54.07715,-16084,-3760,568,-2528,-159,265,0,0
54.07715,-16024,-3704,548,-2528,-50,190,0,0
54.12691,-16036,-3828,636,-2496,-39,212,0,0
54.12691,-16084,-3780,428,-2528,-74,333,0,0
54.1601,-16064,-3732,596,-2480,30,302,0,0
54.20987,-16028,-3768,508,-2512,56,162,0,0
54.20987,-15960,-3908,480,-2528,-35,271,0,0
54.25964,-15888,-3788,556,-2480,-64,217,0,0
54.25964,-15968,-3832,540,-2512,-46,107,0,0
54.34259,-16116,-3748,688,-2496,-197,204,0,0
54.39236,-16132,-3644,520,-2512,-119,201,0,0
54.39236,-15884,-3892,488,-2496,-99,78,0,0
54.44213,-16012,-3736,592,-2528,-127,282,0,0
54.47531,-16076,-3760,520,-2512,10,-29,0,0
54.52508,-16048,-3836,556,-2528,-63,135,0,0
54.52508,-16088,-3800,500,-2480,-145,167,0,0
54.57485,-16112,-3772,784,-2480,-27,131,0,0
54.57485,-15820,-3776,664,-2480,-137,190,0,0
54.6578,-15792,-3800,700,-2528,-220,135,0,0
54.70757,-16096,-3676,572,-2496,-137,41,0,0
54.75734,-16140,-3656,628,-2480,-190,252,0,0
54.75734,-15940,-3728,496,-2480,-223,252,0,0
54.79052,-16024,-3796,464,-2512,-185,180,0,0
54.80711,-16112,-3756,452,-2480,-139,173,0,0
54.84029,-16164,-3796,428,-2512,-85,4,0,0
54.84029,-16008,-3832,680,-2480,-196,288,0,0
54.89006,-16092,-3684,632,-2528,-236,345,0,0
55.02278,-15900,-3656,512,-2528,-111,221,0,0
55.02278,-16028,-3680,368,-2512,-190,377,0,0
55.07255,-16092,-3732,320,-2512,-25,226,0,0
55.10574,-16004,-3740,656,-2448,-89,388,0,0
55.12233,-16020,-3716,564,-2496,-175,501,0,0
55.17209,-16064,-3696,352,-2544,-166,549,0,0
55.17209,-16016,-3572,316,-2480,-30,192,0,0
55.20527,-16076,-3756,576,-2512,-42,340,0,0
55.28857,-16020,-3788,620,-2528,-145,364,0,0
55.28857,-16056,-3700,312,-2480,-181,383,0,0
55.38813,-16120,-3608,576,-2480,-87,172,0,0
55.38813,-16028,-3656,408,-2480,-86,257,0,0
55.42132,-16128,-3832,324,-2512,-162,432,0,0
55.4711,-16100,-3628,476,-2496,-82,184,0,0
55.48769,-16180,-3720,376,-2480,-77,308,0,0
55.60384,-15836,-3716,656,-2480,-164,384,0,0
55.62043,-15944,-3580,248,-2480,-84,268,0,0
55.65362,-16028,-3764,600,-2496,-143,43,0,0
55.7034,-16108,-3696,472,-2512,-353,359,0,0
55.7034,-15916,-3588,424,-2480,-393,880,0,0
55.73658,-16132,-3352,-136,-2464,-163,245,0,0
55.75318,-15820,-3684,-20,-2480,87,158,0,0
55.78636,-16272,-3580,248,-2512,-146,383,0,0
55.78636,-16112,-3688,188,-2480,-130,237,0,0
55.83614,-16028,-3716,496,-2512,-207,184,0,0
55.83614,-16108,-3672,292,-2480,-249,84,0,0
55.88592,-15920,-3456,236,-2480,-397,223,0,0
55.91911,-16044,-3488,-68,-2480,-222,7,0,0
55.91911,-16088,-3656,200,-2496,-16,26,0,0
55.96888,-16244,-3548,308,-2480,44,184,0,0
55.96888,-16164,-3548,340,-2496,-71,355,0,0
56.01866,-15972,-3596,124,-2464,-76,318,0,0
56.05185,-15880,-3616,240,-2464,-33,96,0,0
56.06844,-16064,-3708,408,-2496,-84,81,0,0
56.06844,-16048,-3752,400,-2464,-295,282,0,0
56.10163,-16108,-3500,212,-2480,-248,340,0,0
56.15141,-15892,-3720,592,-2496,-278,89,0,0
56.15141,-16036,-3744,372,-2496,-436,-36,0,0
56.18459,-16136,-3524,164,-2496,-496,140,0,0
56.20118,-16088,-3556,316,-2464,-368,-60,0,0
56.23437,-15960,-3684,176,-2480,-384,113,0,0
56.25095,-16140,-3732,96,-2496,-244,370,0,0
56.28415,-15976,-3512,424,-2496,-37,-35,0,0
56.33392,-15908,-3788,352,-2496,-202,197,0,0
56.33392,-16076,-3548,168,-2512,-266,278,0,0
56.36711,-16044,-3516,192,-2496,-203,322,0,0
56.3837,-15968,-3780,344,-2480,-195,145,0,0
56.41689,-16068,-3744,348,-2448,-307,267,0,0
56.46666,-16268,-3576,276,-2480,-410,433,0,0
56.46666,-16080,-3516,76,-2464,-360,203,0,0
56.49985,-15988,-3576,268,-2496,-434,322,0,0
56.49985,-16044,-3876,40,-2512,-348,540,0,0
56.54963,-16240,-3692,128,-2496,-167,426,0,0
56.59941,-16128,-3600,96,-2512,-276,460,0,0
56.64919,-15888,-3576,-220,-2496,-112,359,0,0
56.64919,-15980,-3692,356,-2496,-139,685,0,0
56.68238,-16172,-3800,276,-2496,-299,484,0,0
56.73216,-16136,-3556,-28,-2448,-399,383,0,0
56.73216,-16100,-3528,240,-2480,-326,293,0,0
56.78194,-16488,-3628,-476,-2480,-370,-96,0,0
56.78194,-15948,-3360,-180,-2480,-42,135,0,0
56.83171,-16056,-3704,164,-2496,-201,45,0,0
56.8649,-16144,-3548,252,-2512,-355,257,0,0
56.8649,-16028,-3648,76,-2496,-378,285,0,0
57.04742,-15824,-3840,284,-2480,-318,-243,0,0
57.06402,-16108,-3356,-272,-2480,-741,51,0,0
57.08061,-16144,-3436,-508,-2480,-138,-486,0,0
57.09721,-16188,-3736,-188,-2496,-32,-232,0,0
57.14698,-16048,-3932,132,-2464,-57,63,0,0
57.14698,-15916,-3716,488,-2464,-321,224,0,0
57.18017,-15980,-3556,216,-2496,-487,414,0,0
57.19676,-16208,-3444,48,-2480,-148,-180,0,0
57.22995,-16076,-3708,180,-2512,-251,107,0,0
57.27973,-15948,-3580,-12,-2480,-210,279,0,0
57.27973,-15960,-3896,-56,-2480,11,-133,0,0
57.31291,-15988,-3848,356,-2496,-139,88,0,0
57.32951,-16152,-3708,48,-2496,-337,253,0,0
57.36269,-16160,-3560,-20,-2480,-225,162,0,0
57.37928,-15976,-3660,124,-2496,-174,125,0,0
57.41247,-15784,-3764,-32,-2464,78,-70,0,0
57.46258,-16136,-3752,152,-2480,-207,177,0,0
57.46258,-16116,-3804,204,-2464,-212,5,0,0
57.47917,-16028,-3780,236,-2480,-342,309,0,0
57.54554,-15960,-3700,100,-2464,-257,114,0,0
57.54554,-16008,-3692,104,-2464,-156,-14,0,0
57.59533,-15968,-3804,168,-2464,-157,106,0,0
57.62851,-16072,-3644,88,-2480,-226,219,0,0
57.67829,-16028,-3740,216,-2480,-3,-29,0,0
57.67829,-16080,-3808,204,-2496,-259,137,0,0
57.72807,-16076,-3568,248,-2496,-356,-119,0,0
57.76125,-16072,-3648,-32,-2448,-313,186,0,0
57.77784,-16120,-3648,44,-2512,-114,78,0,0
57.81103,-16056,-3788,148,-2480,-130,50,0,0
57.91058,-15988,-3784,292,-2432,-103,17,0,0
57.94376,-15904,-3764,348,-2512,-192,-109,0,0
57.96036,-16024,-4120,96,-2464,-240,-278,0,0
57.99354,-15896,-3404,-28,-2464,-231,-171,0,0
57.99354,-16228,-3828,328,-2480,-108,-353,0,0
58.02673,-16072,-3888,348,-2480,-367,-40,0,0
58.07651,-15872,-3828,336,-2480,-482,115,0,0
58.0931,-15800,-3732,572,-2480,-798,816,0,0
58.12628,-15876,-3632,-48,-2512,-773,884,0,0
58.17606,-16044,-3856,128,-2496,-303,309,0,0
58.17606,-15604,-4024,484,-2480,-537,225,0,0
58.22584,-15960,-3408,-112,-2496,-312,249,0,0
58.25902,-15940,-3880,360,-2496,-128,84,0,0
58.25902,-16060,-3716,8,-2480,-94,325,0,0
58.3088,-16136,-3876,224,-2480,119,133,0,0
58.35858,-15972,-3668,460,-2432,-54,301,0,0
58.35858,-16020,-3776,12,-2480,61,113,0,0
58.39177,-15992,-3720,204,-2448,-74,344,0,0
58.44154,-16016,-3776,20,-2464,8,136,0,0
58.44154,-15892,-3972,436,-2464,44,119,0,0
58.49132,-16132,-3940,368,-2464,-426,1115,0,0
58.5245,-16132,-3840,-132,-2432,-322,568,0,0
58.54109,-15872,-3524,76,-2432,-146,-65,0,0
58.57428,-16036,-3844,52,-2464,-183,325,0,0
58.62405,-16024,-3768,132,-2464,-57,24,0,0
58.67383,-15988,-3712,128,-2464,-139,229,0,0
58.67383,-16168,-3708,228,-2448,-193,124,0,0
58.70702,-16204,-3596,32,-2464,-120,283,0,0
58.75679,-15988,-3844,96,-2480,-250,410,0,0
58.75679,-16148,-3656,80,-2480,-350,731,0,0
58.80657,-15908,-3712,108,-2464,-215,358,0,0
58.85635,-15732,-3556,-96,-2448,-271,294,0,0
58.88953,-16208,-3860,264,-2464,8,-220,0,0
58.88953,-15964,-4100,248,-2496,-257,-15,0,0
58.93931,-15944,-3624,-140,-2448,-243,306,0,0
58.98909,-15960,-3660,16,-2432,-336,210,0,0
59.02227,-16028,-3632,-52,-2448,-118,118,0,0
59.03887,-16084,-3608,-192,-2448,42,135,0,0
59.07205,-16060,-3784,-16,-2448,86,150,0,0
59.12133,-16096,-3776,12,-2448,23,171,0,0
59.12133,-16156,-3716,8,-2464,17,347,0,0
59.17107,-16188,-3596,-72,-2448,32,239,0,0
59.20425,-15948,-3656,156,-2448,56,8,0,0
59.25401,-15968,-3768,-108,-2464,-65,126,0,0
59.25401,-15960,-3580,140,-2432,-48,65,0,0
59.30376,-16092,-3620,-96,-2448,-7,50,0,0
59.33694,-16228,-3728,144,-2480,43,35,0,0
59.35352,-15832,-3700,376,-2448,-113,453,0,0
59.38669,-15948,-3552,80,-2464,-151,343,0,0
59.43645,-16084,-3616,260,-2448,-6,40,0,0
59.43645,-16056,-3716,112,-2464,27,161,0,0
59.48621,-16064,-3680,76,-2432,-7,294,0,0
59.51938,-16204,-3748,-8,-2448,-53,59,0,0
59.56913,-16060,-3740,64,-2480,-155,231,0,0
59.61889,-16132,-3624,-260,-2448,-104,231,0,0
59.61889,-16056,-3664,124,-2448,41,85,0,0
59.65206,-15996,-3672,-40,-2480,-7,267,0,0
59.66865,-16116,-3704,96,-2464,61,29,0,0
59.70182,-16120,-3620,56,-2448,-64,294,0,0
59.78475,-16072,-3692,184,-2448,-16,144,0,0
59.80134,-15996,-3648,20,-2464,-120,245,0,0
59.88427,-16016,-3676,104,-2432,-53,10,0,0
59.88427,-16100,-3744,180,-2480,-93,140,0,0
59.93402,-16060,-3676,188,-2464,-120,138,0,0
59.9672,-15932,-3568,-92,-2464,-151,124,0,0
59.9672,-16064,-3716,88,-2448,-51,57,0,0
60.01695,-16072,-3656,0,-2480,-144,267,0,0
60.01695,-16048,-3740,12,-2448,123,-52,0,0
60.06671,-15992,-3828,680,-2416,-81,168,0,0
60.06671,-16140,-3572,-4,-2464,-215,340,0,0
60.11647,-16112,-3592,-76,-2464,-100,112,0,0
60.14965,-16020,-3812,180,-2464,-39,191,0,0
60.14965,-16200,-3708,156,-2448,-181,229,0,0
60.19941,-16000,-3636,-8,-2448,-190,205,0,0
60.24916,-15960,-3632,252,-2432,-73,186,0,0
60.24916,-16072,-3752,-140,-2464,-139,168,0,0
60.28234,-16120,-3668,-196,-2432,-48,190,0,0
60.33209,-16016,-3728,44,-2464,-37,220,0,0
60.33209,-16040,-3588,-8,-2448,-125,300,0,0
60.38185,-16060,-3636,52,-2416,57,152,0,0
60.41502,-16120,-3684,-52,-2480,43,214,0,0
60.43161,-15968,-3648,168,-2432,-9,222,0,0
60.51454,-16096,-3668,-68,-2464,10,55,0,0
60.56429,-16056,-3672,176,-2448,-120,267,0,0
60.56429,-16164,-3684,-164,-2464,-44,159,0,0
60.59747,-15968,-3608,288,-2448,-59,1,0,0
60.61405,-16064,-3536,-20,-2448,-150,224,0,0
60.64722,-16172,-3692,-36,-2432,-28,-23,0,0
60.69698,-16068,-3700,224,-2448,-1,165,0,0
60.69698,-15992,-3624,-100,-2448,-246,259,0,0
60.73016,-16096,-3592,-68,-2416,-20,96,0,0
60.74674,-16048,-3628,156,-2448,-60,171,1,0
60.7803,-16040,-3648,160,-2448,-130,265,1,0
60.83006,-16036,-3600,36,-2464,-44,59,1,0
60.87984,-16268,-3656,140,-2432,13,164,1,0
60.87984,-16172,-3484,220,-2432,116,266,1,0
60.92961,-15948,-3772,164,-2432,-29,371,1,0
60.96279,-15908,-3596,36,-2448,-79,343,1,0
60.96279,-15868,-3656,-24,-2448,170,-30,1,0
61.01257,-16124,-3568,248,-2448,10,201,1,0
61.09552,-16072,-3608,-12,-2480,-25,287,1,0
61.14529,-16084,-3688,192,-2432,-33,22,1,0
61.19506,-16052,-3648,148,-2448,-107,240,1,0
61.19506,-16056,-3488,52,-2448,-57,130,1,0
61.27801,-16112,-3624,-40,-2416,12,25,1,0
61.27801,-15976,-3832,412,-2432,24,-127,1,0
61.32779,-16096,-3556,160,-2448,-305,405,1,0
61.32779,-16208,-3416,-336,-2464,62,-108,1,0
61.37756,-16004,-3572,220,-2432,175,26,1,0
61.41074,-16056,-3628,120,-2448,32,154,1,0
61.41074,-16136,-3644,0,-2464,9,81,1,0
61.46051,-16020,-3580,212,-2448,-68,265,1,0
61.46051,-15996,-3676,-80,-2480,-32,208,1,0
61.49369,-16128,-3556,320,-2480,58,4,1,0
61.51028,-16140,-3644,88,-2448,-29,267,1,0
61.54346,-16076,-3596,-56,-2432,-1,184,1,0
61.59323,-15996,-3612,328,-2480,-30,228,1,0
61.59323,-15952,-3600,280,-2448,-1,220,1,0
61.64301,-16088,-3628,148,-2416,-101,116,1,0
61.64301,-16148,-3584,252,-2480,-36,200,1,0
61.69278,-16112,-3644,404,-2432,-28,140,1,0
61.72596,-16056,-3580,348,-2448,-63,285,1,0
61.77573,-15984,-3524,60,-2448,-56,170,1,0
61.77573,-16092,-3592,280,-2448,30,82,1,0
61.8255,-16228,-3688,160,-2448,-4,124,1,0
61.85868,-16168,-3716,84,-2448,-38,170,1,0
61.87527,-15988,-3620,104,-2400,-136,161,1,0
61.90845,-16044,-3672,380,-2416,-79,-72,1,0
61.95676,-16028,-3636,296,-2432,-124,258,1,0
61.95676,-16128,-3396,224,-2432,-199,103,1,0
62.00799,-16136,-3444,52,-2448,-118,27,1,0
62.02458,-16136,-3548,144,-2448,-154,84,1,0
62.07435,-16104,-3688,84,-2448,-117,-20,1,0
62.07435,-16240,-3736,264,-2448,-73,57,1,0
62.14071,-16056,-3600,272,-2432,-166,-268,1,0
62.19048,-15988,-3600,56,-2448,15,181,1,0
62.22367,-16104,-3516,52,-2448,111,256,1,0
62.22367,-16008,-3464,24,-2416,238,85,1,0
62.27344,-16140,-3532,264,-2448,363,-155,1,0
62.30662,-16128,-3704,220,-2448,238,61,1,0
62.32321,-16104,-3564,420,-2448,212,228,1,0
62.35639,-16132,-3488,260,-2432,106,245,1,0
62.40616,-16012,-3452,260,-2432,318,-86,1,0
62.40616,-16068,-3564,280,-2448,283,-88,1,0
62.48911,-16116,-3620,248,-2448,400,-150,1,0
62.5057,-16204,-3876,668,-2432,309,-208,1,0
62.53888,-16092,-3676,372,-2416,171,132,1,0
62.57206,-16060,-3556,184,-2464,209,-137,1,0
62.58866,-15948,-3544,300,-2432,66,-141,1,0
62.63843,-15868,-3740,540,-2448,168,-1,1,0
62.67161,-16168,-3544,356,-2448,-59,308,1,0
62.67161,-16028,-3524,244,-2416,115,102,1,0
62.70478,-16068,-3728,552,-2432,174,-122,1,0
62.80433,-16136,-3660,528,-2432,-87,295,1,0
62.82092,-16128,-3520,276,-2448,-57,327,1,0
62.8541,-16132,-3564,148,-2448,209,74,1,0
62.8541,-16072,-3688,612,-2480,219,-2,1,0
62.90425,-16112,-3684,396,-2448,92,435,1,0
62.90425,-16128,-3640,292,-2448,171,194,1,0
62.95403,-15888,-3660,692,-2464,54,332,1,0
62.95403,-16056,-3600,404,-2448,187,216,1,0
62.98722,-16048,-3640,516,-2464,214,211,1,0
63.037,-15992,-3452,512,-2416,156,125,1,0
63.037,-16168,-3656,552,-2416,46,130,1,0
63.08678,-16064,-3616,536,-2416,0,289,1,0
63.11996,-16072,-3708,224,-2432,162,47,1,0
63.11996,-15992,-3600,724,-2432,54,184,1,0
63.16974,-16080,-3628,428,-2416,31,260,1,0
63.21952,-16000,-3728,512,-2448,138,-104,1,0
63.21952,-16112,-3616,604,-2416,38,340,1,0
63.2527,-16132,-3588,452,-2432,-27,192,1,0
63.30248,-16108,-3604,300,-2416,-42,305,1,0
63.30248,-15908,-3508,348,-2416,197,263,1,0
63.35225,-15876,-3716,648,-2400,161,154,1,0
63.38543,-16056,-3600,712,-2432,78,16,1,0
63.38543,-16112,-3752,728,-2432,131,-114,1,0
63.43521,-15976,-3712,872,-2448,-181,145,1,0
63.48499,-16096,-3540,292,-2416,-215,394,1,0
63.51817,-15972,-3656,308,-2416,72,-37,1,0
63.53476,-16076,-3720,492,-2464,-19,182,1,0
63.56795,-16056,-3600,436,-2416,-38,412,1,0
63.61758,-16012,-3652,564,-2448,118,234,1,0
63.61758,-16048,-3444,564,-2416,159,196,1,0
63.65091,-15972,-3620,432,-2432,187,167,1,0
63.70068,-15968,-3556,408,-2432,193,242,1,0
63.71727,-16072,-3584,608,-2432,208,-22,1,0
63.75045,-15972,-3740,404,-2416,227,46,1,0
63.80023,-16276,-3664,692,-2416,169,-137,1,0
63.80023,-16356,-3584,596,-2464,140,154,1,0
63.85041,-15988,-3648,712,-2416,111,20,1,0
63.88359,-16164,-3476,476,-2416,41,215,1,0
63.93344,-16100,-3396,288,-2432,204,-10,1,0
63.93344,-15940,-3700,776,-2416,128,50,1,0
63.98323,-16228,-3584,792,-2432,6,172,1,0
64.01643,-16140,-3660,812,-2432,-147,502,1,0
64.03304,-15948,-3564,312,-2416,98,281,1,0
64.06623,-16020,-3588,764,-2432,199,235,1,0
64.11603,-16088,-3636,792,-2448,150,341,1,0
64.11603,-16020,-3664,804,-2432,159,235,1,0
64.16405,-16004,-3676,708,-2400,-8,429,1,0
64.19903,-16032,-3356,564,-2416,114,272,1,0
64.24883,-16164,-3204,496,-2432,127,310,1,0
64.24883,-16028,-3508,396,-2432,205,145,1,0
64.29862,-15968,-3596,528,-2432,342,111,1,0
64.33183,-16136,-3824,816,-2432,197,-26,1,0
64.34842,-16084,-3628,760,-2400,62,56,1,0
64.38161,-15940,-3380,596,-2400,-53,-141,1,0
64.41482,-16148,-3672,772,-2432,-134,29,1,0
64.41482,-15868,-3568,800,-2432,-99,162,1,0
64.48122,-15940,-3424,648,-2416,-44,139,1,0
64.51442,-15916,-3608,584,-2448,-5,-153,1,0
64.56422,-16132,-3516,732,-2416,113,-77,1,0
64.56422,-16084,-3620,860,-2416,18,-41,1,0
64.61401,-16092,-3524,608,-2384,69,-69,1,0
64.64722,-16060,-3812,852,-2416,150,-448,1,0
64.64722,-16016,-3624,968,-2416,-92,153,1,0
64.69701,-16056,-3444,428,-2432,42,61,1,0
64.74681,-15800,-3360,964,-2448,-2,-152,1,0
64.78001,-16008,-3540,868,-2432,234,79,1,0
64.79661,-15896,-3420,1032,-2432,163,116,1,0
64.82981,-16084,-3668,848,-2416,190,66,1,0
64.82981,-15984,-3452,868,-2416,71,210,1,0
64.87961,-16072,-3516,940,-2416,53,276,1,0
64.92941,-16020,-3548,940,-2432,62,154,1,0
64.9792,-16128,-3556,728,-2416,93,99,1,0
64.9792,-16024,-3544,976,-2448,196,-262,1,0
65.0124,-16068,-3504,1160,-2416,80,-56,1,0
65.06219,-16092,-3732,996,-2432,-184,119,1,0
65.112,-16004,-3484,880,-2400,-236,242,1,0
65.112,-16028,-3520,904,-2416,-91,165,1,0
65.1452,-16020,-3464,1100,-2432,-25,180,1,0
65.19499,-16044,-3536,1100,-2416,28,230,1,0
65.19499,-15924,-3596,1068,-2432,-41,339,1,0
65.24479,-16044,-3624,812,-2448,140,62,1,0
65.27799,-15872,-3812,960,-2416,59,138,1,0
65.27799,-16060,-3628,1024,-2432,-104,161,1,0
65.32779,-15876,-3596,1032,-2400,26,-113,1,0
65.42738,-15944,-3632,816,-2400,-107,170,1,0
65.42738,-16200,-3640,724,-2416,-162,283,1,0
65.46058,-16144,-3676,896,-2416,-92,184,1,0
65.46058,-16012,-3812,1096,-2400,-96,169,1,0
65.51038,-16016,-3676,880,-2448,-195,395,1,0
65.51038,-16092,-3724,744,-2416,-46,-80,1,0
65.56018,-16000,-3760,1096,-2464,-116,217,1,0
65.59338,-16076,-3820,844,-2400,-93,269,1,0
65.64318,-16024,-3684,964,-2432,25,66,1,0
65.65977,-15908,-3680,1060,-2416,-117,180,1,0
65.70956,-16040,-3844,712,-2416,-122,249,1,0
65.72616,-15936,-3636,724,-2432,68,139,1,0
65.74275,-15860,-3736,1024,-2432,12,61,1,0
65.77596,-16140,-3792,1124,-2432,-109,122,1,0
65.82575,-16060,-3588,728,-2432,-97,196,1,0
65.82575,-16040,-3804,864,-2432,-82,168,1,0
65.87555,-16040,-3856,856,-2400,40,108,1,0
65.90875,-16092,-3936,1040,-2384,12,77,1,0
65.92535,-16012,-3748,1084,-2448,-192,462,1,0
65.95855,-15952,-3724,728,-2400,10,186,1,0
66.00872,-15996,-3756,852,-2384,8,208,1,0
66.04194,-16064,-3628,1096,-2416,53,228,1,0
66.05854,-16068,-3832,844,-2416,5,200,1,0
66.09174,-16112,-3600,788,-2384,50,194,1,0
66.14155,-15924,-3628,960,-2448,85,135,1,0
66.14155,-15964,-3772,964,-2432,12,161,1,0
66.19135,-15972,-3760,944,-2384,-18,143,1,0
66.22455,-15964,-3908,924,-2400,-62,63,1,0
66.24115,-16064,-3708,884,-2432,-74,45,1,0
66.27435,-15992,-3656,1096,-2416,-71,100,1,0
66.32416,-15896,-3924,1232,-2384,-350,283,1,0
66.35736,-15884,-3856,732,-2448,-383,106,1,0
66.37396,-15944,-3780,1148,-2448,-411,76,1,0
66.40717,-16252,-3520,1040,-2400,-190,50,1,0
66.45696,-15936,-3684,864,-2432,-196,223,1,0
66.45696,-15976,-3580,932,-2416,-5,-30,1,0
66.50677,-15892,-3772,740,-2416,44,168,1,0
66.53998,-15908,-3788,788,-2400,178,105,1,0
66.58978,-16224,-3792,1108,-2400,134,118,1,0
66.58978,-16016,-3532,1068,-2416,164,225,1,0
66.63958,-15812,-3708,1200,-2416,97,119,1,0
66.68938,-15892,-3616,988,-2400,80,102,1,0
66.7226,-16092,-3840,996,-2416,149,-2,1,0
66.7226,-15848,-3864,964,-2400,51,278,1,0
66.75579,-15896,-3812,944,-2416,3,248,1,0
66.8056,-15952,-3852,968,-2368,57,71,1,0
66.8222,-16068,-3796,1100,-2416,-35,304,1,0
66.8554,-16076,-3608,932,-2416,-80,300,1,0
66.8554,-15960,-3620,960,-2400,43,390,1,0
66.9052,-15908,-3748,1000,-2448,148,252,1,0
66.955,-15952,-3732,1288,-2416,-20,159,1,0
66.955,-15924,-3780,684,-2400,-9,402,1,0
66.9882,-16120,-3824,808,-2400,308,19,1,0
67.03801,-16072,-4012,1040,-2384,162,34,1,0
67.03801,-16012,-4080,1112,-2400,-185,213,1,0
67.07121,-16044,-3700,1048,-2384,-235,161,1,0
67.12102,-15848,-3808,920,-2400,-148,47,1,0
67.13762,-15924,-3684,964,-2384,-87,106,1,0
67.17082,-15964,-3648,944,-2384,190,-108,1,0
67.22063,-16120,-3664,1404,-2384,39,69,1,0
67.27043,-15648,-3484,624,-2416,-41,303,1,0
67.30363,-16228,-3664,820,-2416,-18,-169,1,0
67.30363,-16216,-3668,832,-2400,186,91,1,0
67.35344,-15772,-3920,1096,-2432,-3,315,1,0
67.40324,-15972,-3676,1140,-2384,-139,219,1,0
67.40324,-16072,-3740,1160,-2400,-63,123,1,0
67.45305,-16048,-3776,1100,-2400,-121,228,1,0
67.48625,-15992,-3680,984,-2416,-83,189,1,0
67.48625,-16040,-3760,1020,-2416,78,286,1,0
67.53606,-16000,-3868,1476,-2400,-69,274,1,0
67.56926,-15980,-3648,824,-2384,-258,534,1,0
67.61906,-15952,-3548,792,-2416,-12,201,1,0
67.61906,-16072,-3552,864,-2400,-105,403,1,0
67.66887,-15920,-3660,988,-2400,-48,243,1,0
67.71867,-16068,-3712,1048,-2384,-78,333,1,0
67.71867,-16176,-3568,880,-2400,-64,274,1,0
67.75188,-15980,-3464,688,-2400,37,446,1,0
67.80168,-15876,-3800,864,-2416,200,-68,1,0
67.85149,-15944,-3756,1196,-2384,-43,211,1,0
67.85149,-16040,-3764,1096,-2368,-80,201,1,0
67.90128,-16068,-3556,932,-2416,-86,115,1,0
67.93449,-16032,-3712,804,-2432,-93,166,1,0
67.93449,-16068,-3636,932,-2384,-184,496,1,0
68.03409,-16212,-3404,976,-2416,11,335,1,0
68.03409,-15988,-3624,1112,-2400,72,126,1,0
68.08389,-16140,-3712,1068,-2400,-75,370,1,0
68.1171,-16296,-3648,872,-2400,79,295,1,0
68.1171,-15976,-3732,1220,-2416,-92,248,1,0
68.16689,-15856,-3544,696,-2384,-180,460,1,0
68.16689,-15988,-3616,812,-2368,-1,423,1,0
68.2167,-16008,-3536,900,-2416,73,303,1,0
68.2499,-16100,-3648,868,-2368,-3,351,1,0
68.2499,-15980,-3748,688,-2416,-8,381,1,0
68.34951,-15964,-3832,928,-2400,5,99,1,0
68.38271,-16232,-3836,792,-2400,-83,263,1,0
68.39931,-15988,-3584,808,-2400,-82,159,1,0
68.43252,-15964,-3680,772,-2400,-170,165,0,0
68.43252,-16040,-3728,836,-2400,-58,23,0,0
68.53213,-16004,-3684,896,-2400,-112,120,0,0
68.53213,-16020,-3620,848,-2400,-120,218,0,0
68.56532,-15948,-3732,744,-2384,-67,69,0,0
68.56532,-16068,-3804,1080,-2384,-87,187,0,0
68.66493,-16008,-3552,788,-2384,-60,220,0,0
68.69814,-15872,-3564,660,-2400,44,90,0,0
68.71474,-15916,-3824,1008,-2384,-27,-38,0,0
68.74794,-15956,-3760,1028,-2384,-160,251,0,0
68.74794,-16188,-3740,860,-2400,-111,36,0,0
68.78114,-16248,-3448,676,-2384,43,-14,0,0
68.79743,-15972,-3672,1068,-2400,-60,140,0,0
68.84755,-16036,-3580,752,-2400,-175,211,0,0
68.88075,-16000,-3596,816,-2400,2,135,0,0
68.88075,-16052,-3568,1076,-2416,-11,78,0,0
68.93056,-15988,-3612,1012,-2416,-97,119,0,0
68.93056,-15992,-3632,856,-2368,-172,237,0,0
68.96376,-15968,-3604,816,-2416,-85,178,0,0
69.01357,-15892,-3756,948,-2384,-52,181,0,0
69.03016,-16188,-3732,884,-2416,-79,197,0,0
69.06336,-16104,-3476,916,-2368,-95,246,0,0
69.11316,-15904,-3524,824,-2416,16,246,0,0
69.11316,-15936,-3648,836,-2400,-34,200,0,0
69.16296,-16072,-3556,1060,-2368,-72,261,0,0
69.19617,-16048,-3524,868,-2384,-12,231,0,0
69.24598,-15976,-3628,832,-2384,-105,347,0,0
69.29578,-15908,-3580,776,-2384,-6,217,0,0
69.29578,-16096,-3732,904,-2368,-53,120,0,0
69.32897,-16096,-3704,856,-2384,-132,163,0,0
69.37878,-16004,-3692,808,-2384,-150,133,0,0
69.37878,-16020,-3560,1088,-2400,-171,75,0,0
69.42858,-16040,-3688,948,-2400,-161,75,0,0
69.46178,-15968,-3652,908,-2384,-202,298,0,0
69.47839,-15888,-3588,1008,-2400,-141,135,0,0
69.51159,-16000,-3520,1088,-2416,-208,278,0,0
69.56139,-16048,-3684,816,-2400,-63,155,0,0
69.61119,-16144,-3524,956,-2400,63,-47,0,0
69.61119,-16152,-3620,1080,-2400,-156,333,0,0
69.64439,-15912,-3604,892,-2368,-230,293,0,0
69.69419,-16156,-3600,912,-2400,-237,230,0,0
69.69419,-16120,-3688,864,-2384,-192,281,0,0
69.744,-16008,-3564,876,-2368,-365,368,0,0
69.7772,-16224,-3528,692,-2352,-248,155,0,0
69.7938,-16164,-3444,784,-2384,-210,287,0,0
69.82652,-16080,-3456,736,-2384,-107,43,0,0
69.87632,-16092,-3548,1184,-2416,-123,109,0,0
69.87632,-15864,-3528,1148,-2384,-273,25,0,0
69.92609,-16092,-3592,620,-2400,-402,150,0,0
69.95928,-16168,-3328,612,-2368,-111,12,0,0
69.95928,-16112,-3460,868,-2432,-33,241,0,0
70.00907,-16040,-3544,812,-2384,-75,366,0,0
70.05886,-15964,-3488,900,-2384,-111,304,0,0
70.10865,-15996,-3404,960,-2400,-110,316,0,0
70.10865,-15932,-3488,1104,-2384,-124,-41,0,0
70.14184,-16364,-3368,696,-2416,-326,428,0,0
70.19163,-16164,-3448,680,-2400,-252,320,0,0
70.22482,-16064,-3428,772,-2368,-203,253,0,0
70.24142,-16076,-3408,744,-2400,-200,296,0,0
70.2746,-16112,-3464,832,-2368,-69,306,0,0
70.32439,-16204,-3316,724,-2400,-23,352,0,0
70.32439,-16180,-3392,844,-2400,-86,283,0,0
70.37418,-16044,-3304,932,-2432,-220,380,0,0
70.42397,-16012,-3368,440,-2368,-130,482,0,0
70.42397,-15884,-3608,788,-2368,63,133,0,0
70.45717,-15936,-3560,1004,-2384,-221,306,0,0
70.50696,-16020,-3356,984,-2400,-906,202,0,0
70.50696,-16360,-2880,196,-2400,-756,482,0,0
70.55675,-16072,-3080,388,-2384,-308,162,0,0
70.58994,-15916,-3260,516,-2400,33,47,0,0
70.63972,-15984,-3552,772,-2384,-131,168,0,0
70.63972,-16236,-3252,548,-2368,-170,253,0,0
70.68951,-16064,-3276,540,-2416,-74,233,0,0
70.7227,-16064,-3352,496,-2368,-4,257,0,0
70.7393,-16072,-3348,576,-2384,-56,311,0,0
70.77248,-16064,-3180,864,-2384,-273,345,0,0
70.87206,-16196,-3588,792,-2368,-1000,1503,0,0
70.95504,-16112,-3080,344,-2400,-1139,1434,0,0
70.95504,-16212,-3404,184,-2368,-877,614,0,0
71.00483,-15860,-2748,-56,-2368,-291,209,0,0
71.00483,-16220,-3284,200,-2352,-165,123,0,0
71.03802,-16224,-3092,260,-2368,-123,259,0,0
71.05462,-16024,-3232,352,-2352,-249,149,0,0
71.08781,-16156,-3228,320,-2384,-282,246,0,0
71.10441,-16220,-2968,368,-2384,-202,-18,0,0
71.1376,-16184,-3072,656,-2400,-107,-411,0,0
71.1376,-16168,-2964,308,-2352,-158,-338,0,0
71.18739,-16188,-3176,408,-2368,-96,-371,0,0
71.27036,-15980,-3316,184,-2384,-111,-157,0,0
71.32015,-16172,-3092,292,-2368,-130,123,0,0
71.32015,-16260,-3316,460,-2400,-215,271,0,0
71.35335,-15964,-3244,608,-2384,-228,238,0,0
71.36994,-16068,-3088,732,-2384,-317,471,0,0
71.38654,-16264,-2916,356,-2352,-274,80,0,0
71.40313,-16228,-3160,416,-2400,-240,18,0,0
71.4533,-16068,-3116,548,-2352,-294,320,0,0
71.4865,-16224,-3100,276,-2384,-497,559,0,0
71.50309,-16200,-3148,332,-2368,-785,1344,0,0
71.53635,-16028,-3012,288,-2352,-595,721,0,0
71.53635,-16164,-3220,32,-2352,-497,568,0,0
71.58617,-16324,-3312,188,-2368,-545,752,0,0
71.63599,-16232,-2856,512,-2400,-682,1040,0,0
71.6692,-16120,-3568,-148,-2368,-689,422,0,0
71.68581,-15912,-2352,436,-2384,-413,353,0,0
71.71902,-16200,-3388,4,-2384,-196,-104,0,0
71.76883,-16196,-3028,240,-2352,-46,-9,0,0
71.76883,-16228,-3224,240,-2352,-117,-18,0,0
71.80204,-16344,-3128,120,-2368,-150,152,0,0
71.88506,-16020,-3096,140,-2400,-6,-67,0,0
71.90167,-16124,-3156,184,-2368,3,-90,0,0
71.95149,-16160,-3240,316,-2384,-270,437,0,0
71.95149,-16256,-3184,136,-2368,-247,266,0,0
71.9847,-16028,-3124,144,-2400,-245,131,0,0
72.03452,-16160,-3040,28,-2384,-90,223,0,0
72.03452,-16152,-3216,476,-2384,-393,291,0,0
72.08434,-16068,-3180,148,-2352,-601,406,0,0
72.11755,-16240,-3352,-160,-2368,-121,-135,0,0
72.13416,-16284,-3196,308,-2368,-296,468,0,0
72.21719,-16236,-3120,8,-2400,-167,79,0,0
72.2504,-16180,-3200,348,-2384,-168,103,0,0
72.267,-16076,-3192,192,-2384,-216,377,0,0
72.30021,-16080,-3068,-12,-2400,-191,182,0,0
72.31682,-16156,-3228,268,-2320,-200,81,0,0
72.35003,-16236,-3288,368,-2384,-268,127,0,0
72.39985,-16100,-3436,476,-2368,-335,152,0,0
72.39985,-16284,-3084,392,-2368,-704,301,0,0
72.43306,-16152,-2600,-756,-2400,-493,319,0,0
72.53269,-15932,-3144,-368,-2368,233,-224,0,0
72.53269,-16100,-3484,688,-2352,136,-212,0,0
72.5659,-16144,-3480,436,-2384,-284,360,0,0
72.58251,-16096,-3052,148,-2384,-441,172,0,0
72.61572,-16180,-3184,-28,-2368,-272,-19,0,0
72.61572,-16104,-3212,144,-2352,-168,-70,0,0
72.71535,-15952,-3424,228,-2400,-247,-31,0,0
72.71535,-16272,-3224,284,-2352,-420,-20,0,0
72.74857,-16264,-3124,132,-2368,-363,-41,0,0
72.76517,-16220,-3200,280,-2400,-230,-88,0,0
72.79839,-16168,-3088,304,-2368,-329,300,0,0
72.8482,-16100,-3248,296,-2384,-300,-4,0,0
72.8482,-16096,-3188,168,-2384,-226,-175,0,0
72.88141,-16200,-3436,296,-2352,-265,-459,0,0
72.93122,-16096,-3388,380,-2352,-323,199,0,0
72.93122,-16192,-3232,264,-2368,-383,-3,0,0
72.98104,-16264,-3216,96,-2368,-292,50,0,0
73.01425,-16096,-3304,316,-2368,-190,10,0,0
73.06406,-16124,-3320,284,-2368,-124,85,0,0
73.08067,-16108,-3420,524,-2384,-321,107,0,0
73.11388,-16416,-3276,296,-2368,-484,175,0,0
73.1637,-16256,-3160,-28,-2368,-245,111,0,0
73.1637,-16136,-3296,288,-2384,-49,98,0,0
73.19691,-16208,-3572,340,-2336,-55,-254,0,0
73.24673,-16148,-3440,336,-2336,-259,30,0,0
73.24673,-16072,-3540,280,-2352,-196,-179,0,0
73.29654,-16084,-3400,496,-2368,-157,73,0,0
73.29654,-16040,-3312,204,-2368,-318,36,0,0
73.34636,-16048,-3372,264,-2368,-144,-143,0,0
73.37957,-15952,-3384,652,-2368,-240,142,0,0
73.42938,-16272,-3304,268,-2336,-278,367,0,0
73.4792,-16032,-3368,264,-2352,-109,90,0,0
73.4792,-16136,-3312,488,-2352,-83,142,0,0
73.51241,-16064,-3524,760,-2384,-410,897,0,0
73.56175,-16092,-3228,172,-2384,-427,868,0,0
73.61156,-16144,-3428,196,-2384,-134,236,0,0
73.61156,-15876,-3468,188,-2384,6,47,0,0
73.66137,-16056,-3416,300,-2368,-150,363,0,0
73.69457,-16152,-3404,248,-2368,-224,123,0,0
73.69457,-16292,-3464,48,-2384,-268,388,0,0
73.74438,-16024,-3340,52,-2352,-134,177,0,0
73.77759,-16068,-3432,188,-2368,-133,110,0,0
73.7942,-16204,-3476,84,-2384,-100,161,0,0
73.87721,-16128,-3540,408,-2384,-109,347,0,0
73.92702,-16064,-3628,272,-2352,-309,427,0,0
73.92702,-15872,-3404,164,-2400,-407,387,0,0
73.96023,-16072,-3240,-56,-2368,-179,368,0,0
73.97683,-15992,-3384,384,-2368,-21,-92,0,0
74.01004,-16220,-3448,312,-2352,-138,269,0,0
74.01004,-16324,-3140,144,-2352,-106,394,0,0
74.05984,-16000,-3192,72,-2368,46,185,0,0
74.09306,-15976,-3548,156,-2352,94,-164,0,0
74.10966,-16168,-3340,296,-2352,-4,36,0,0
74.19267,-16208,-3220,120,-2352,-169,311,0,0
74.22588,-16108,-3344,104,-2352,-50,-7,0,0
74.24248,-16132,-3364,268,-2368,11,-118,0,0
74.27568,-16372,-3388,252,-2320,-40,-2,0,0
74.29229,-16104,-3304,500,-2336,-118,112,0,0
74.32549,-15984,-3316,272,-2368,-158,350,0,0
74.32549,-16132,-3172,108,-2368,-95,-13,0,0
74.37531,-16240,-3352,328,-2384,-37,32,0,0
74.42512,-16028,-3260,256,-2368,13,157,0,0
74.42512,-16160,-3420,476,-2352,-132,370,0,0
74.45832,-16056,-3288,52,-2368,-90,287,0,0
74.50813,-16196,-3316,176,-2352,11,-28,0,0
74.54134,-16132,-3296,232,-2336,70,72,0,0
74.55781,-16252,-3380,552,-2368,-86,424,0,0
74.60774,-16160,-3268,152,-2336,-140,369,0,0
74.64095,-15968,-3264,216,-2400,3,-20,0,0
74.64095,-16104,-3172,276,-2368,0,153,0,0
74.69076,-16212,-3416,172,-2352,-43,230,0,0
74.74057,-16084,-3332,348,-2384,-34,178,0,0
74.74057,-16088,-3332,432,-2352,-62,103,0,0
74.82359,-16096,-3272,320,-2320,-114,260,0,0
74.8734,-16240,-3332,212,-2352,-15,86,0,0
74.8734,-16068,-3404,244,-2368,-20,72,0,0
74.90661,-16204,-3420,284,-2368,-45,61,0,0
74.92321,-16252,-3404,296,-2336,-84,1,0,0
74.95642,-16004,-3336,444,-2368,-129,439,0,0
75.00623,-15988,-3188,296,-2336,-138,152,0,0
75.00623,-16224,-3176,152,-2352,-18,65,0,0
75.05604,-16208,-3424,544,-2368,2,209,0,0
75.08924,-16032,-3380,408,-2352,-129,363,0,0
75.08924,-16068,-3288,164,-2352,-9,146,0,0
75.13904,-16292,-3416,292,-2320,44,52,0,0
75.18885,-16248,-3488,432,-2352,-135,419,0,0
75.18885,-16244,-3364,88,-2352,38,260,0,0
75.23866,-16076,-3332,424,-2384,-3,60,0,0
75.27187,-16064,-3404,268,-2352,-75,280,0,0
75.27187,-16160,-3300,320,-2352,11,125,0,0
75.32168,-16016,-3188,228,-2336,-61,233,0,0
75.35488,-16196,-3336,228,-2368,-38,89,0,0
75.37148,-16248,-3408,468,-2368,-80,104,0,0
75.40469,-16132,-3316,200,-2368,-165,190,0,0
75.4545,-16140,-3264,216,-2384,-30,-7,0,0
75.5043,-16080,-3364,500,-2368,-57,189,0,0
75.5043,-16040,-3380,220,-2352,-126,80,0,0
75.53751,-16040,-3248,360,-2368,-89,89,0,0
75.58732,-16032,-3292,284,-2352,-147,278,0,0
75.63713,-16124,-3244,24,-2336,-73,-14,0,0
75.63713,-16240,-3408,364,-2352,-2,145,0,0
75.68694,-16096,-3316,300,-2320,-70,269,0,0
75.76995,-16160,-3496,248,-2384,-118,83,0,0
75.76995,-16144,-3208,280,-2368,-94,214,0,0
75.81976,-16212,-3292,324,-2336,-90,302,0,0
75.81976,-16180,-3212,264,-2352,-2,124,0,0
75.85297,-16204,-3392,400,-2368,43,137,0,0
75.90278,-16280,-3316,180,-2320,-62,190,0,0
75.90278,-16004,-3416,296,-2352,-60,215,0,0
75.95258,-16072,-3340,256,-2320,-3,260,0,0
75.95258,-16068,-3216,260,-2336,-14,81,0,0
75.98579,-16192,-3296,344,-2368,56,35,0,0
76.08541,-16020,-3368,424,-2384,-67,260,0,0
76.08541,-16148,-3304,276,-2368,-56,141,0,0
76.11853,-16088,-3420,232,-2352,23,-9,1,0
76.13522,-16180,-3312,380,-2352,-95,170,1,0
76.16843,-16176,-3332,268,-2320,-30,39,1,0
76.21823,-16132,-3340,500,-2336,-84,267,1,0
76.21823,-16092,-3336,244,-2352,0,113,1,0
76.26804,-16060,-3328,284,-2368,-78,83,1,0
76.35105,-16116,-3348,196,-2352,30,212,1,0
76.35105,-16048,-3288,408,-2336,118,53,1,0
76.40086,-16132,-3336,500,-2352,-19,228,1,0
76.40086,-16212,-3336,204,-2352,-96,182,1,0
76.48387,-16160,-3136,96,-2336,-124,63,1,0
76.50047,-16224,-3304,444,-2368,-30,112,1,0
76.53368,-15980,-3372,480,-2336,-32,119,1,0
76.53368,-16320,-3384,336,-2336,-128,286,1,0
76.58349,-16164,-3296,248,-2336,-41,142,1,0
76.58349,-16164,-3164,136,-2352,9,180,1,0
76.61669,-15892,-3364,224,-2336,35,169,1,0
76.6333,-16168,-3388,632,-2352,-52,157,1,0
76.6665,-16200,-3220,-28,-2336,9,259,1,0
76.71631,-16140,-3392,332,-2336,77,91,1,0
76.71631,-16136,-3392,348,-2368,12,286,1,0
76.79933,-16224,-3288,208,-2352,-30,85,1,0
76.84914,-16200,-3192,196,-2336,91,-261,1,0
76.84914,-16132,-3564,728,-2352,1,10,1,0
76.89895,-16324,-3188,428,-2352,-254,250,1,0
76.89895,-16176,-3196,268,-2384,21,-95,1,0
76.93216,-16096,-3444,456,-2320,112,-101,1,0
76.94876,-16268,-3400,504,-2368,229,-258,1,0
76.98196,-16080,-3196,348,-2352,360,-319,1,0
77.03178,-16240,-3448,376,-2320,302,-334,1,0
77.03178,-16216,-3564,660,-2352,296,-109,1,0
77.11432,-16140,-3508,808,-2352,-29,689,1,0
77.16407,-15956,-3232,224,-2352,169,288,1,0
77.16407,-16196,-3280,504,-2352,322,178,1,0
77.21384,-16024,-3216,480,-2320,210,170,1,0
77.21384,-16092,-3468,676,-2368,244,136,1,0
77.2636,-16136,-3384,572,-2368,176,137,1,0
77.2636,-16144,-3424,668,-2352,229,22,1,0
77.29678,-16120,-3480,712,-2336,72,152,1,0
77.34655,-16236,-3216,616,-2336,23,92,1,0
77.34655,-16052,-3352,584,-2352,71,-31,1,0
77.39632,-16060,-3220,860,-2336,62,-171,1,0
77.39632,-15932,-3372,724,-2352,83,-371,1,0
77.42949,-16092,-3176,640,-2336,-38,-108,1,0
77.47926,-16144,-3212,540,-2336,123,-155,1,0
77.47926,-16228,-3424,756,-2336,-24,266,1,0
77.52902,-16304,-3208,276,-2304,191,191,1,0
77.5622,-16040,-3628,720,-2320,418,127,1,0
77.5788,-15988,-3404,736,-2336,487,72,1,0
77.61197,-15904,-3236,928,-2320,376,-10,1,0
77.66174,-16184,-3272,852,-2352,259,2,1,0
77.66174,-16244,-3428,728,-2352,123,15,1,0
77.71151,-16168,-3488,740,-2336,279,48,1,0
77.74468,-15900,-3476,880,-2320,112,434,1,0
77.74468,-16036,-3332,528,-2368,250,141,1,0
77.79445,-16168,-3412,708,-2320,333,-218,1,0
77.84422,-16252,-3540,788,-2288,287,94,1,0
77.84422,-16088,-3324,1044,-2336,327,99,1,0
77.8774,-16188,-3324,1068,-2288,207,338,1,0
77.92754,-16208,-3336,568,-2320,269,43,1,0
77.92754,-16276,-3312,756,-2336,493,-450,1,0
77.97732,-16008,-3412,1048,-2336,434,-537,1,0
78.0271,-16144,-3564,916,-2368,72,199,1,0
78.06029,-16140,-3264,732,-2320,281,-31,1,0
78.06029,-16224,-3340,924,-2352,482,-167,1,0
78.11008,-15964,-3440,1064,-2336,299,-224,1,0
78.15986,-16068,-3564,1396,-2336,134,-65,1,0
78.15986,-16224,-3468,1084,-2336,-36,328,1,0
78.29261,-16196,-3444,780,-2352,253,-111,1,0
78.29261,-15896,-3180,1068,-2368,46,-52,1,0
78.29261,-16212,-3332,928,-2352,390,-8,1,0
78.34239,-16064,-3484,1344,-2352,370,102,1,0
78.37559,-16208,-3424,1124,-2336,356,160,1,0
78.37559,-16060,-3516,1080,-2320,359,313,1,0
78.42537,-16112,-3476,1332,-2336,446,37,1,0
78.47515,-15940,-3628,1276,-2336,486,37,1,0
78.47515,-15928,-3280,1420,-2320,343,-232,1,0
78.50835,-16148,-3248,1084,-2352,287,55,1,0
78.55813,-15924,-3440,1092,-2320,368,-116,1,0
78.55813,-16012,-3292,1352,-2320,411,-134,1,0
78.60791,-16008,-3484,1444,-2368,426,173,1,0
78.60791,-16152,-3356,1396,-2352,111,-74,1,0
78.6577,-16124,-3516,1120,-2320,197,-212,1,0
78.69089,-16140,-3468,1580,-2336,167,-213,1,0
78.74067,-16112,-3400,1468,-2336,-223,251,1,0
78.74067,-15996,-3048,1304,-2304,-57,313,1,0
78.79046,-16068,-3616,1540,-2304,160,-107,1,0
78.82364,-16032,-3324,1536,-2352,33,64,1,0
78.82364,-16292,-3316,1348,-2304,-78,183,1,0
78.87343,-16328,-3244,1120,-2320,106,70,1,0
78.92321,-16096,-3252,1496,-2304,305,-54,1,0
78.95641,-16124,-3344,1336,-2304,130,352,1,0
78.973,-16144,-3336,1228,-2336,319,49,1,0
79.00619,-16176,-3456,1540,-2352,356,-64,1,0
79.05597,-16096,-3360,1604,-2352,311,43,1,0
79.10575,-16076,-3256,1560,-2336,174,105,1,0
79.10575,-15992,-3144,1252,-2352,201,53,1,0
79.13894,-16152,-3388,964,-2336,329,-172,1,0
79.18873,-16084,-3412,1576,-2336,285,-162,1,0
79.18873,-15928,-3164,1428,-2320,361,-250,1,0
79.23851,-16096,-3336,1636,-2352,152,75,1,0
79.2717,-16084,-3312,1648,-2320,145,-116,1,0
79.2883,-15800,-3436,1648,-2320,37,27,1,0
79.32149,-15948,-3304,1652,-2320,-7,183,1,0
79.37127,-15892,-3356,1868,-2336,-115,124,1,0
79.42105,-15908,-3304,1840,-2320,-248,205,1,0
79.45424,-15832,-3576,1312,-2336,-11,-686,1,0
79.45424,-16072,-3156,2040,-2304,-191,-399,1,0
79.50402,-16144,-3372,1456,-2336,-108,-340,1,0
79.55381,-15988,-3356,1616,-2336,-243,367,1,0
79.55381,-16188,-2980,1620,-2352,214,-246,1,0
79.60359,-15924,-3132,2192,-2304,57,165,1,0
79.63678,-15856,-3268,1628,-2304,-28,100,1,0
79.63678,-16120,-3240,1652,-2288,29,46,1,0
79.73634,-16160,-3408,1984,-2320,91,71,1,0
79.76953,-16004,-3508,1824,-2320,-6,114,1,0
79.76953,-15960,-3332,1836,-2320,-107,296,1,0
79.81932,-15972,-3368,1760,-2320,-92,23,1,0
79.81932,-15924,-3240,1900,-2320,-81,147,1,0
79.90229,-16052,-3312,1704,-2320,5,144,1,0
79.91888,-16064,-3312,1816,-2320,129,75,1,0
79.95207,-15932,-3296,1900,-2304,110,126,1,0
79.95207,-15840,-3484,1880,-2320,-83,242,1,0
80.00185,-16124,-3372,1688,-2320,-33,254,1,0
80.00185,-16112,-3416,1832,-2352,10,94,1,0
80.05164,-16060,-3512,2012,-2320,-118,209,1,0
80.08483,-16028,-3300,1868,-2336,-148,307,1,0
80.08483,-16020,-3348,1704,-2336,-55,189,1,0
80.13461,-15968,-3468,1660,-2320,17,196,1,0
80.13461,-16072,-3448,1936,-2320,58,165,1,0
80.18439,-15896,-3384,1868,-2320,-62,372,1,0
80.21759,-16108,-3544,1712,-2320,-67,174,1,0
80.26737,-16172,-3372,1808,-2320,-21,204,1,0
80.26737,-15964,-3252,1652,-2288,-32,228,1,0
80.36694,-16008,-3452,1740,-2336,-49,221,1,0
80.36694,-15984,-3388,1832,-2304,2,117,1,0
80.40013,-16028,-3508,1840,-2336,-92,164,1,0
80.41673,-16208,-3248,1920,-2288,-119,105,1,0
80.44992,-16024,-3416,1512,-2336,-119,194,1,0
80.4997,-15984,-3388,1520,-2304,74,5,1,0
80.4997,-16084,-3432,1888,-2304,66,-10,1,0
80.53289,-15888,-3308,1868,-2320,-181,313,1,0
80.58268,-15888,-3324,1564,-2288,-104,221,1,0
80.58268,-16140,-3424,1796,-2304,17,71,1,0
80.63246,-16128,-3484,1780,-2288,-70,192,1,0
80.66565,-16040,-3288,1856,-2320,-53,201,1,0
80.68224,-16088,-3260,1892,-2320,-34,171,1,0
80.71544,-15952,-3432,1608,-2320,-88,298,1,0
80.71544,-15996,-3364,1568,-2272,18,84,1,0
80.76522,-16144,-3400,1848,-2320,12,191,1,0
80.815,-15824,-3316,1900,-2304,-42,261,1,0
80.84819,-16012,-3404,1684,-2320,-123,219,1,0
80.86478,-16020,-3356,1608,-2336,-7,213,1,0
80.89797,-15992,-3436,1844,-2320,-22,179,1,0
80.94775,-15888,-3420,1800,-2320,-28,174,1,0
80.94775,-16036,-3436,1916,-2288,-141,178,1,0
80.99754,-16096,-3320,1724,-2336,-156,271,1,0
81.03073,-16040,-3292,1836,-2320,-24,135,1,0
81.08052,-16048,-3404,1556,-2304,9,36,1,0
81.08052,-16100,-3332,1880,-2288,-87,183,1,0
81.1303,-15976,-3336,1304,-2320,-17,258,1,0
81.16349,-16136,-3408,1880,-2336,175,-190,1,0
81.21327,-16168,-3280,2004,-2320,-65,217,1,0
81.21327,-15824,-3332,1856,-2320,-170,173,1,0
81.26306,-16088,-3332,1904,-2288,-138,217,1,0
81.31284,-15904,-3396,1588,-2336,-61,112,1,0
81.34603,-15952,-3276,1984,-2320,-26,103,1,0
81.34603,-15948,-3336,1984,-2336,-68,291,1,0
81.39582,-16136,-3288,1720,-2320,-70,250,1,0
81.4456,-15836,-3300,1844,-2304,-41,217,1,0
81.4456,-15992,-3312,1876,-2304,42,190,1,0
81.47879,-15992,-3348,1984,-2320,-33,444,1,0
81.52814,-15848,-3252,1616,-2304,52,222,1,0
81.52814,-15948,-3252,1712,-2352,-16,134,1,0
81.57791,-15908,-3256,1812,-2336,-70,307,1,0
81.6111,-15944,-3272,1708,-2320,-73,274,1,0
81.66088,-16060,-3340,1612,-2320,-9,191,1,0
81.66088,-16024,-3332,1880,-2304,-38,161,1,0
81.71066,-16172,-3304,1752,-2304,-133,288,1,0
81.76044,-16072,-3332,1692,-2320,-127,250,1,0
81.79362,-16184,-3280,1592,-2288,-16,170,1,0
81.8434,-15968,-3260,1788,-2336,24,171,1,0
81.8434,-16008,-3428,1728,-2336,-48,319,1,0
81.89318,-15972,-3300,1664,-2352,-30,203,1,0
81.89318,-15920,-3336,1940,-2304,7,-20,1,0
81.94296,-16068,-3424,1780,-2272,-160,383,1,0
81.95955,-16072,-3308,1496,-2288,29,23,1,0
82.02592,-16224,-3244,1932,-2272,-27,121,1,0
82.07571,-15944,-3240,1540,-2320,-95,293,1,0
82.07571,-16004,-3456,1756,-2320,22,96,1,0
82.10889,-16284,-3316,1988,-2336,-100,213,1,0
82.12548,-16064,-3452,1728,-2288,-90,177,1,0
82.15867,-16008,-3164,1852,-2320,-95,224,1,0
82.20845,-16100,-3280,1940,-2320,-20,151,1,0
82.20845,-16112,-3400,1868,-2336,-91,263,1,0
82.25822,-15996,-3244,1656,-2320,-63,379,1,0
82.34115,-15936,-3352,1728,-2288,0,194,1,0
82.34115,-16068,-3348,1676,-2288,-44,231,1,0
82.39097,-15968,-3368,1728,-2336,-99,368,1,0
82.39097,-16028,-3240,1576,-2304,18,138,1,0
82.42416,-15948,-3252,1744,-2272,-14,281,1,0
82.47394,-15964,-3360,1728,-2304,-33,217,1,0
82.47394,-16140,-3432,1824,-2320,-144,158,1,0
82.52371,-16076,-3368,1520,-2304,-163,238,1,0
82.5569,-15956,-3348,1572,-2320,-111,254,1,0
82.57349,-16108,-3376,1580,-2304,-76,215,1,0
82.65646,-15940,-3468,1872,-2272,-96,167,1,0
82.68964,-16156,-3248,1880,-2288,-183,294,1,0
82.70624,-16024,-3340,1624,-2288,-55,99,1,0
82.73943,-16036,-3376,1660,-2320,-103,242,1,0
82.73943,-16044,-3448,1556,-2320,-32,198,1,0
82.78921,-16364,-3380,1992,-2304,97,-33,1,0
82.78921,-16084,-3200,1952,-2304,-104,386,1,0
82.83899,-15852,-3244,1712,-2288,-114,252,1,0
82.87218,-16032,-3328,1628,-2304,-8,54,1,0
82.88877,-16092,-3452,1972,-2288,16,141,1,0
82.92195,-16048,-3464,1768,-2304,-176,350,1,0
82.97173,-16044,-3332,1556,-2304,-141,194,1,0
83.00492,-16200,-3248,1684,-2320,-93,186,1,0
83.02151,-15972,-3556,1704,-2304,-29,117,1,0
83.0547,-16000,-3400,1636,-2304,-104,243,1,0
83.0547,-16136,-3312,1576,-2288,-81,220,1,0
83.10448,-16112,-3332,1616,-2304,32,133,1,0
83.13766,-16036,-3504,1676,-2304,-73,297,1,0
83.18745,-16044,-3200,1484,-2304,8,187,1,0
83.20404,-16028,-3328,1520,-2288,38,225,1,0
83.23723,-16228,-3432,1844,-2288,9,163,1,0
83.287,-15864,-3320,1664,-2288,-142,277,1,0
83.287,-15936,-3244,1640,-2288,-61,155,1,0
83.33678,-16000,-3408,1684,-2320,-70,190,1,0
83.36996,-16012,-3332,1960,-2320,-134,176,1,0
83.41974,-16056,-3240,1500,-2288,-142,186,1,0
83.41974,-15996,-3280,1800,-2288,-116,283,1,0
83.46952,-15964,-3296,1524,-2304,-60,104,1,0
83.50271,-15700,-3452,1864,-2304,-101,196,1,0
83.50271,-16200,-3456,1488,-2304,-89,237,1,0
83.60227,-16364,-3240,1580,-2320,43,191,1,0
83.63546,-16144,-3400,1808,-2320,-6,252,1,0
83.65205,-15840,-3224,1792,-2304,-175,211,1,0
83.68523,-16048,-3380,1540,-2272,-137,179,1,0
83.68523,-15984,-3328,1652,-2288,-206,223,1,0
83.73456,-15880,-3236,1776,-2320,-250,128,1,0
83.7843,-16084,-3308,1788,-2272,-326,182,1,0
83.81747,-16228,-3244,1676,-2288,-331,253,1,0
83.83405,-16040,-3324,1656,-2320,-263,190,1,0
83.86723,-15796,-3404,1644,-2288,-288,307,1,0
83.91698,-15952,-3280,1628,-2320,-273,260,1,0
83.91698,-16004,-3252,1584,-2304,-267,371,1,0
83.95015,-16072,-3256,1536,-2272,-62,98,1,0
83.9999,-16048,-3296,1756,-2304,-79,217,1,0
83.9999,-15972,-3336,1680,-2288,-225,414,1,0
84.04965,-16032,-3168,1468,-2304,-162,260,1,0
84.04965,-16236,-3284,1476,-2304,-177,258,1,0
84.0994,-16116,-3264,1384,-2320,-128,322,1,0
84.13258,-15960,-3424,1808,-2272,-211,219,1,0
84.23208,-15872,-3416,1484,-2272,-406,357,1,0
84.26524,-16272,-3152,1560,-2288,-363,61,1,0
84.28183,-16024,-3104,1500,-2288,-286,125,1,0
84.31499,-16024,-3276,1440,-2288,-332,263,1,0
84.31499,-16104,-3276,1408,-2288,-345,337,1,0
84.36475,-16092,-3252,1384,-2288,-152,161,1,0
84.36475,-16184,-3372,1612,-2320,-90,55,1,0
84.4145,-16092,-3308,1428,-2256,-120,301,1,0
84.44767,-16072,-3272,1456,-2304,-153,234,1,0
84.46425,-16060,-3376,1600,-2272,-213,259,1,0
84.54718,-15980,-3216,1472,-2288,-343,462,1,0
84.58035,-16104,-3184,1376,-2272,-253,282,1,0
84.59693,-15960,-3296,1320,-2272,-204,158,1,0
84.6301,-16308,-3212,1456,-2272,-232,187,1,0
84.6301,-16072,-3176,1240,-2304,-206,283,1,0
84.67984,-16012,-3156,1348,-2304,-17,117,1,0
84.72999,-15676,-3428,1684,-2288,-150,258,1,0
84.72999,-16056,-3220,1224,-2288,-155,243,1,0
84.7632,-16024,-3352,1540,-2272,-193,189,1,0
84.77979,-16008,-3248,1508,-2320,-229,387,1,0
84.81297,-16308,-3204,1444,-2272,-179,238,1,0
84.86275,-16216,-3212,1360,-2304,-225,312,1,0
84.86275,-16212,-3188,1288,-2288,-142,259,1,0
84.99548,-16128,-3388,1436,-2288,-194,317,1,0
84.99548,-16244,-3224,1236,-2320,-105,485,1,0
85.04526,-16072,-3204,1436,-2288,-298,-6,1,0
85.04526,-16252,-3152,1412,-2320,-451,123,1,0
85.07844,-16008,-2988,1200,-2288,-153,-199,1,0
85.09503,-16192,-3296,1552,-2304,-244,148,1,0
85.12822,-16288,-3128,1332,-2288,-187,206,1,0
85.17799,-16136,-3216,1220,-2304,-64,305,1,0
85.17799,-16060,-3012,1456,-2272,66,142,1,0
85.26094,-16000,-3352,1748,-2288,-157,531,1,0
85.27753,-16032,-3080,1552,-2288,-337,454,1,0
85.29412,-16192,-2908,1084,-2288,-302,369,1,0
85.31071,-16032,-3152,1340,-2256,-278,306,1,0
85.36048,-15944,-3116,1028,-2288,-266,244,1,0
85.36048,-16200,-3340,1368,-2288,-309,426,1,0
85.39367,-15992,-3192,1356,-2320,-334,216,1,0
85.44344,-15872,-3056,1308,-2304,-361,77,1,0
85.44344,-16264,-3300,1152,-2288,-458,49,1,0
85.49322,-16008,-3312,1196,-2288,-274,214,1,0
85.54298,-15948,-3332,1372,-2256,-209,147,1,0
85.54298,-15992,-3284,1172,-2272,-369,212,1,0
85.57616,-16132,-3300,1080,-2272,-348,228,1,0
85.62594,-15980,-3248,1192,-2272,-236,188,1,0
85.62594,-15976,-3228,1304,-2320,-282,239,1,0
85.67572,-16232,-3312,1404,-2288,-417,233,1,0
85.7089,-15900,-3248,1232,-2272,-528,459,1,0
85.7089,-16192,-3288,1152,-2288,-579,332,1,0
85.75867,-16352,-3136,956,-2288,-828,784,1,0
85.80845,-16172,-3172,628,-2304,-496,938,1,0
85.84163,-15896,-3020,1168,-2304,-231,291,1,0
85.85822,-15956,-3252,1152,-2288,-339,554,1,0
85.8914,-16296,-2996,924,-2272,-315,381,1,0
85.94118,-16308,-3744,948,-2256,-358,21,1,0
85.94118,-16208,-2952,1048,-2272,-260,416,1,0
85.99094,-16288,-3344,1520,-2272,-649,817,1,0
86.02413,-16168,-3212,944,-2256,-837,892,1,0
86.07391,-16056,-3140,1028,-2272,-1034,907,1,0
86.07391,-15988,-3264,660,-2288,-925,1026,1,0
86.12368,-16012,-3012,212,-2288,-488,787,1,0
86.15687,-16068,-3080,456,-2320,-254,323,1,0
86.17345,-16180,-3252,912,-2272,-444,313,1,0
86.20664,-16276,-3456,396,-2320,-987,1059,1,0
86.25642,-16152,-2892,544,-2256,-969,534,1,0
86.30619,-16560,-3620,268,-2288,-778,800,1,0
86.30619,-16328,-2812,620,-2240,-310,934,1,0
86.33937,-16348,-3236,532,-2304,-631,835,1,0
86.38914,-16200,-3112,764,-2288,-955,1321,1,0
86.38914,-16168,-3020,-20,-2288,-800,1633,1,0
86.43892,-16404,-3040,-280,-2256,-236,572,1,0
86.47211,-16036,-2952,324,-2272,-175,108,1,0
86.47211,-16148,-3128,176,-2288,-336,377,1,0
86.52188,-16316,-3100,152,-2272,-313,231,1,0
86.57165,-16228,-3116,44,-2272,-156,112,1,0
86.60484,-16112,-3184,308,-2256,-273,314,1,0
86.65461,-16116,-2904,108,-2288,-369,775,1,0
86.65461,-16008,-2956,-176,-2288,-391,500,1,0
86.70438,-16324,-3008,-192,-2272,-352,356,1,0
86.75416,-16216,-3248,96,-2304,-152,406,1,0
86.75416,-16288,-3168,308,-2320,-151,480,1,0
86.78734,-16100,-3128,96,-2256,-361,509,1,0
86.83711,-16212,-2968,-264,-2256,-442,524,1,0
86.85371,-16112,-3036,-708,-2272,-154,390,1,0
86.88689,-16052,-3076,-144,-2272,-59,189,1,0
86.93666,-16276,-3272,20,-2272,-263,309,1,0
86.96985,-16220,-3192,28,-2304,-354,605,1,0
86.98643,-16056,-2924,-324,-2288,-148,201,1,0
87.01962,-16088,-3116,-84,-2288,-209,208,1,0
87.0694,-16104,-3156,-360,-2288,36,-156,1,0
87.10258,-16304,-3100,-68,-2256,21,-37,1,0
87.11917,-16228,-3164,-16,-2224,-48,134,1,0
87.15235,-16236,-3300,-48,-2272,47,4,1,0
87.20213,-16388,-3328,-16,-2272,72,-57,1,0
87.23531,-16364,-3180,308,-2272,-64,234,1,0
87.2519,-15796,-3332,-96,-2304,-397,608,1,0
87.28508,-16308,-2876,56,-2272,-334,472,1,0
87.33485,-16180,-2920,-160,-2288,-120,35,1,0
87.33485,-16316,-3016,-68,-2304,42,81,1,0
87.38463,-16236,-3228,-148,-2288,118,88,1,0
87.41781,-16204,-3112,-28,-2272,33,151,1,0
87.4344,-16336,-3152,-240,-2288,85,110,1,0
87.46758,-16256,-3120,260,-2272,41,33,1,0
87.51736,-15852,-3116,360,-2288,-146,-144,1,0
87.56713,-16136,-3184,12,-2288,-493,-193,1,0
87.56713,-16180,-3072,-496,-2288,-337,-504,1,0
87.61691,-16392,-3356,-236,-2240,-113,-539,1,0
87.65009,-16216,-3000,-48,-2256,-267,231,1,0
87.68327,-16216,-3156,-172,-2272,-182,365,1,0
87.69987,-16128,-3124,152,-2288,88,-24,1,0
87.73305,-16264,-2984,56,-2256,59,388,1,0
87.78281,-16084,-3084,24,-2288,25,403,1,0
87.78281,-16152,-3204,104,-2288,34,334,1,0
87.86578,-15988,-3200,168,-2288,-18,122,1,0
87.88237,-16132,-3188,76,-2256,-149,240,1,0
87.91555,-16132,-3244,208,-2288,-191,129,1,0
87.96532,-16132,-3180,256,-2256,-426,234,1,0
87.96532,-16008,-3088,-72,-2272,-348,54,1,0
88.0151,-16224,-3196,44,-2272,-409,224,1,0
88.04829,-16300,-3036,8,-2256,-378,296,1,0
88.06487,-16040,-3080,-40,-2288,-193,170,1,0
88.09806,-16200,-3184,-28,-2288,-161,150,1,0
88.18102,-16284,-3124,-224,-2288,-150,130,1,0
88.1976,-16368,-3252,60,-2256,-138,27,1,0
88.23078,-16000,-3124,332,-2304,-144,416,1,0
88.23078,-16112,-3068,48,-2240,-282,286,1,0
88.28056,-16056,-3096,-140,-2256,-186,90,1,0
88.31374,-16248,-3072,36,-2256,-204,419,1,0
88.33034,-16104,-3116,-12,-2288,-189,278,1,0
88.36352,-16252,-3180,-164,-2272,-134,7,1,0
88.38011,-16212,-3200,48,-2240,-94,269,1,0
88.41329,-16296,-3144,-108,-2272,-94,255,1,0
88.49625,-16152,-3092,100,-2256,-39,376,1,0
88.51284,-16276,-3052,56,-2288,12,138,1,0
88.54411,-16040,-3132,440,-2288,-42,9,1,0
88.59579,-16128,-3004,-84,-2272,-182,401,1,0
88.59579,-16172,-3184,-320,-2240,-95,-145,1,0
88.64558,-16348,-3288,32,-2288,-150,38,1,0
88.64558,-16348,-3124,36,-2256,-143,432,1,0
88.67876,-16204,-3140,-256,-2272,-280,502,1,0
88.72853,-15912,-3180,-100,-2288,-95,217,1,0
88.72853,-16168,-3336,-52,-2256,9,113,1,0
88.77831,-16252,-3180,28,-2256,-114,209,1,0
88.81149,-16364,-3316,64,-2272,-292,554,1,0
88.82808,-15988,-3188,-152,-2224,-329,411,1,0
88.86078,-16292,-3168,-108,-2272,-236,40,1,0
88.91055,-16228,-3232,-128,-2240,-221,124,1,0
88.96032,-16220,-3072,-148,-2272,-99,302,1,0
88.96032,-16312,-3152,-120,-2320,21,169,1,0
88.9935,-16140,-3200,-4,-2240,-5,144,1,0
89.04327,-16280,-3028,-108,-2240,-47,194,1,0
89.05985,-16160,-3304,180,-2256,-135,470,1,0
89.09303,-15984,-3272,-152,-2240,-136,397,1,0
89.12622,-16132,-3256,-156,-2272,-42,377,1,0
89.12622,-16184,-3088,-28,-2272,65,166,1,0
89.17599,-16008,-3136,-8,-2272,212,164,1,0
89.22576,-16168,-3340,16,-2272,127,367,1,0
89.22576,-16120,-3204,-168,-2272,162,133,1,0
89.27553,-16372,-3392,-228,-2256,177,125,1,0
89.30871,-16096,-3448,84,-2240,19,106,1,0
89.35848,-16172,-3372,104,-2256,-197,532,1,0
89.35848,-16092,-3200,-580,-2256,-144,230,1,0
89.40825,-16272,-3432,104,-2240,11,-121,1,0
89.44144,-16288,-3492,36,-2272,-281,577,1,0
89.45802,-16120,-3148,-396,-2272,-178,286,1,0
89.54097,-16276,-3344,-252,-2256,74,-31,1,0
89.54097,-16252,-3324,4,-2240,44,80,1,0
89.59074,-16060,-3352,-128,-2272,3,264,1,0
89.62392,-16072,-3180,-176,-2288,68,-47,1,0
89.64051,-16060,-3404,-108,-2224,18,28,1,0
89.67369,-16144,-3380,-124,-2256,-201,492,1,0
89.72346,-16036,-3172,-172,-2256,-120,331,1,0
89.72346,-16140,-3276,-160,-2256,-80,181,1,0
89.75665,-16236,-3292,-88,-2224,22,77,1,0
89.80641,-16036,-3300,-24,-2256,-52,188,1,0
89.80641,-16184,-3184,-96,-2288,-116,245,1,0
89.85618,-16092,-3156,-148,-2256,-28,83,1,0
89.90595,-16272,-3368,-40,-2288,-80,315,1,0
89.90595,-16196,-3348,-256,-2256,-141,410,1,0
89.93913,-15960,-3224,-108,-2240,-89,135,1,0
89.98891,-16104,-3304,-188,-2288,-121,42,1,0
90.03867,-16204,-3340,-216,-2256,-93,152,1,0
90.03867,-16144,-3272,-428,-2272,-3,4,1,0
90.08845,-16032,-3312,-192,-2272,29,-402,1,0
90.17139,-16096,-3232,-120,-2256,-28,163,1,0
90.20457,-16112,-3264,-116,-2256,-8,374,1,0
90.22116,-16052,-3348,-100,-2256,-7,394,1,0
90.25434,-16148,-3200,-284,-2288,138,146,1,0
90.25434,-16264,-3384,-220,-2272,28,261,1,0
90.30412,-16204,-3352,36,-2304,-91,586,1,0
90.3373,-16184,-3276,-352,-2288,-118,449,1,0
90.35388,-16180,-3504,-216,-2224,-4,148,1,0
90.38706,-16016,-3380,-36,-2256,-55,277,1,0
90.43684,-16060,-3172,-32,-2304,-131,197,1,0
90.4866,-16084,-3276,-300,-2256,-101,184,1,0
90.4866,-16252,-3248,-60,-2240,-94,99,1,0
90.53638,-16176,-3448,-132,-2256,23,145,1,0
90.56956,-15968,-3280,-20,-2256,66,161,1,0
90.56956,-16132,-3500,-172,-2256,51,273,1,0
90.61933,-15988,-3204,-320,-2240,4,246,1,0
90.65251,-15968,-3364,-260,-2240,56,42,1,0
90.6691,-16084,-3476,84,-2272,-150,549,1,0
90.71886,-16196,-3352,-304,-2256,-134,225,1,0
90.80182,-16132,-3184,-148,-2224,-113,69,1,0
90.80182,-16364,-3292,-128,-2256,-44,278,1,0
90.835,-16184,-3392,-56,-2256,-92,146,1,0
90.85159,-16212,-3260,84,-2224,-74,174,1,0
90.88477,-16088,-3268,-232,-2208,-95,91,1,0
90.93454,-16052,-3384,-188,-2224,-83,285,1,0
90.93454,-16200,-3424,-268,-2240,51,292,1,0
90.98431,-16204,-3356,-44,-2256,-35,183,1,0
91.01749,-16048,-3236,-244,-2224,-16,187,1,0
91.03408,-16304,-3316,-284,-2256,132,237,1,0
91.11703,-16108,-3404,56,-2288,-9,99,1,0
91.15021,-16156,-3384,-344,-2240,-181,325,1,0
91.1668,-16044,-3276,-296,-2256,-35,185,1,0
91.19998,-16112,-3412,-172,-2240,-40,194,1,0
91.19998,-16044,-3276,-220,-2320,9,101,1,0
91.24975,-16324,-3320,-284,-2256,46,118,1,0
91.24975,-16024,-3420,-104,-2288,-22,253,1,0
91.29951,-16156,-3424,-124,-2240,66,37,1,0
91.34929,-15840,-3328,-36,-2240,34,317,1,0
91.34929,-16212,-3412,-336,-2256,-48,128,1,0
91.38246,-16216,-3236,-292,-2256,71,166,1,0
91.41565,-16204,-3408,-184,-2288,2,241,1,0
91.43224,-16116,-3256,-100,-2224,-74,189,1,0
91.482,-16176,-3364,-100,-2256,-51,164,1,0
91.51518,-16088,-3236,-328,-2224,-92,203,1,0
91.51518,-16172,-3288,-220,-2272,44,106,1,0
91.56496,-16116,-3364,-40,-2224,-42,397,1,0
91.61473,-16212,-3256,-200,-2208,9,244,1,0
91.64791,-15996,-3344,-96,-2288,18,120,1,0
91.6645,-16088,-3292,-100,-2256,17,123,1,0
91.69768,-16188,-3376,64,-2240,3,13,1,0
91.74698,-16252,-3388,-152,-2224,-168,238,1,0
91.74698,-16148,-3444,-344,-2272,-94,93,1,0
91.79671,-16040,-3332,-100,-2256,-25,123,1,0
91.82988,-16240,-3236,-304,-2272,-24,174,1,0
91.84647,-16076,-3396,-76,-2240,48,144,1,0
91.86304,-16044,-3368,-160,-2208,-80,216,1,0
91.92938,-16164,-3264,-96,-2272,5,58,1,0
91.96255,-16148,-3472,84,-2272,-112,227,1,0
91.97913,-16072,-3200,-252,-2224,-165,262,1,0
92.0123,-16100,-3372,-120,-2240,-34,77,1,0
