Time,Ax,Ay,Az,Gx,Gy,Gz
0.01659505,0,0,0,0,0,0,0
0.01659505,-15136,-3104,-6428,-1920,-67,194,0
0.265437,-15108,-3208,-6172,-1904,-46,196,0
0.265437,-15068,-3160,-6212,-1888,-75,171,0
0.265437,-15096,-3132,-6208,-1904,-67,160,0
0.265437,-15152,-2964,-6152,-1904,-80,165,0
0.265437,-14980,-3056,-6168,-1904,-69,163,0
0.01659087,-15092,-3160,-6260,-1888,-83,153,0
0.01659087,-14912,-3024,-6384,-1872,-86,135,0
0.0165901,-14992,-3024,-6128,-1936,-50,191,0
0.0165954,-15144,-3112,-6356,-1856,-79,129,0
0.0165954,-15020,-3076,-6040,-1904,-83,188,0
0.0165954,-15112,-3080,-6176,-1888,-91,155,0
0.0165954,-15076,-3108,-6116,-1872,-96,201,0
0.0497709,-15004,-3120,-6248,-1904,-73,170,0
0.0497709,-14824,-2976,-6172,-1904,-80,168,0
0.0497709,-15208,-3072,-6332,-1840,-80,192,0
0.0497709,-14948,-3068,-6264,-1952,-61,152,0
0.0497709,-14956,-3004,-6076,-1888,-74,165,0
0.01659038,-14988,-3160,-6104,-1872,-88,159,0
0.01659038,-14992,-3104,-6356,-1888,-62,157,0
0.01659032,-15164,-3140,-6224,-1888,-67,164,0
0.01659032,-15044,-3080,-6160,-1920,-102,227,0
0.01658813,-15116,-3184,-6260,-1904,-68,215,0
0.01658813,-14948,-3216,-6312,-1856,-51,69,0
0.01658839,-14968,-3148,-6016,-1888,-68,134,0
0.01588135,-15196,-2972,-6308,-1920,-87,226,0
0.01729856,-15160,-2936,-6288,-1888,-71,185,0
0.01659214,-15180,-3140,-6132,-1888,-94,186,0
0.01659214,-14972,-3052,-6300,-1904,-71,281,0
0.01658966,-14804,-3048,-6320,-1856,-36,135,0
0.01658966,-15156,-3008,-6380,-1872,-60,98,0
0.01659021,-15048,-2952,-6236,-1888,-20,86,0
0.01658917,-14924,-2924,-6460,-1920,-47,38,0
0.01658917,-14692,-2768,-6332,-1888,-49,21,0
0.01658995,-15076,-2976,-6428,-1904,-62,-221,0
0.01658995,-15064,-3348,-6484,-1904,-50,-230,0
0.03318108,-15272,-3232,-5984,-1904,-165,-209,0
0.01639021,-15620,-3300,-5948,-1872,-197,-67,0
0.01639021,-15420,-3352,-5780,-1872,-170,430,0
0.03337587,-14872,-3224,-6032,-1888,-108,183,0
0.01658711,-14808,-2968,-6056,-1872,-74,341,0
0.0327004,-14924,-3112,-6104,-1888,-50,169,0
0.01659091,-15088,-3072,-6272,-1872,-75,350,0
0.01659174,-15124,-3020,-6136,-1888,-75,217,0
0.01659989,-15040,-3116,-6012,-1856,-73,312,0
0.01658793,-15120,-3224,-6108,-1888,-64,340,0
0.01659044,-15160,-3164,-6172,-1888,-62,361,0
0.01658305,-15048,-3112,-6264,-1888,-38,324,0
0.01659307,-15136,-3040,-6156,-1936,-65,250,0
0.01658478,-14980,-3032,-6384,-1888,-72,325,0
0.01658478,-15028,-3028,-6388,-1904,-88,218,0
0.01658983,-14860,-2904,-6284,-1888,-93,105,0
0.01658891,-14992,-3028,-6184,-1840,-99,82,0
0.01658903,-15036,-3156,-6140,-1888,-93,117,0
0.016589,-15008,-3008,-6068,-1888,-103,156,0
0.016589,-15124,-3136,-6132,-1872,-99,238,0
0.01658805,-14952,-2992,-6368,-1872,-100,226,0
0.0165918,-15128,-3016,-6144,-1856,-68,133,0
0.01658969,-15100,-3060,-6116,-1904,-78,200,0
0.01659085,-15012,-3040,-6164,-1888,-88,175,0
0.01658784,-15012,-3080,-6116,-1856,-91,208,0
0.0165879,-14992,-3172,-6164,-1856,-77,376,0
0.0165879,-14856,-3084,-6520,-1888,-102,338,0
0.01658637,-15088,-3164,-6220,-1888,-65,187,0
0.01659115,-15024,-3176,-6296,-1904,-75,308,0
0.01659115,-15120,-2908,-6328,-1888,-76,188,0
0.01659048,-15036,-2864,-6324,-1856,-101,194,0
0.01659048,-14964,-3132,-6316,-1888,-120,230,0
0.01658899,-15092,-3108,-5996,-1888,-124,338,0
0.01659061,-15100,-3080,-6168,-1872,-132,461,0
0.01659061,-14992,-3008,-6320,-1904,-123,243,0
0.01659023,-14872,-2896,-6400,-1840,-118,320,0
0.01659006,-14872,-3020,-6320,-1904,-89,407,0
0.0165885,-14916,-3152,-6584,-1888,-134,157,0
0.01658943,-15024,-3000,-6284,-1888,-119,103,0
0.01658943,-15236,-3112,-6212,-1904,-99,126,0
0.01658805,-15204,-3136,-6136,-1872,-113,198,0
0.01658971,-14996,-2932,-6124,-1888,-84,631,0
0.01658971,-14904,-3076,-6412,-1888,-91,569,0
0.0165886,-14924,-2948,-6556,-1856,-65,415,0
0.01658775,-14948,-3048,-6588,-1888,-67,352,0
0.01658775,-14976,-2952,-6484,-1904,-103,288,0
0.01659182,-14960,-2852,-6652,-1888,-94,379,0
0.01659182,-14928,-2876,-6492,-1888,-140,216,0
0.01659,-14984,-2876,-6484,-1888,-144,183,0
0.01658896,-14956,-2936,-6304,-1840,-151,152,0
0.01658896,-14956,-3096,-6412,-1904,-143,284,0
0.01659066,-15076,-3056,-6552,-1888,-96,205,0
0.01658838,-14860,-2956,-6420,-1888,-41,169,0
0.01658838,-14684,-3364,-5976,-1872,286,1457,0
0.01658867,-14524,-3404,-6824,-1920,1295,1892,0
0.01658542,-15708,-3804,-7872,-1840,-373,-292,0
0.01658525,-15840,-3892,-6700,-1888,-757,-1164,0
0.01658525,-15052,-3300,-6624,-1856,-2394,913,0
0.01658965,-15412,-2244,-6596,-1904,-1784,-1284,0
0.01658653,-14852,-716,-6232,-1872,-830,-3426,0
0.01658771,-14096,644,-5188,-1872,-134,-2000,0
0.01658865,-15536,-4692,-4468,-1904,1656,3238,0
0.01658865,-16076,1304,-8472,-1872,-4085,5070,0
0.01659079,-14472,1952,-7896,-1856,-4031,-1288,0
0.01659079,-17512,2252,-7204,-1888,-4761,-5135,0
0.01609153,-10220,4140,-5820,-1872,-11206,4075,0
0.01656478,-16172,-1408,-4480,-1856,-599,-11545,0
0.01656478,-9280,1396,652,-1872,-3137,13907,0
0.01658828,-15244,8848,-3468,-1872,6904,12356,0
0.01657878,-13984,3432,-11096,-1888,1441,13718,0
0.01658255,-16200,2532,-12992,-1872,-13535,-9980,0
0.0165849,-16936,-5476,-6460,-1904,-7447,-11695,0
0.01658686,21744,10116,2708,-1872,9410,7540,0
0.01658133,-17776,-5060,-3844,-1888,-4554,26469,0
0.01658546,-23060,-8244,-16240,-1872,-6752,9498,0
0.01658238,-11356,1248,-7040,-1888,-3892,8577,0
0.01658238,-8480,1748,-7008,-1872,1505,9815,0
0.01658457,-14648,-1072,-12024,-1872,4876,3967,0
0.01658457,-14576,-4316,-11096,-1904,2477,-1964,0
0.01658077,-12828,-4096,-9628,-1856,-459,-1087,0
0.01658708,-13412,-4928,-10224,-1856,15,706,0
0.01658323,-12804,-3752,-9148,-1904,44,2596,0
0.01658273,-10852,-5920,-7444,-1872,-6011,-3290,0
0.01658273,-14576,3612,-8120,-1888,-11935,-15195,0
0.0168423,-16980,4252,-10452,-1872,2503,-10988,0
0.01658015,-17168,1140,-5840,-1888,2803,-17508,0
0.01658015,-14068,-920,-1880,-1888,2474,-8919,0
0.01658335,-17088,-2384,-4892,-1856,1261,-10120,0
0.01658172,-14032,-6192,5128,-1888,-7421,-32768,0
0.01658385,-20860,-4036,-2188,-1888,-9120,-12635,0
0.01658357,-21660,-2788,200,-1856,-16897,-9236,0
0.01658357,-20276,-4776,3048,-1856,-7365,1538,0
0.016583,-18576,-4592,1000,-1888,-5116,5604,0
0.0165849,-14364,-5620,3788,-1872,-7829,-709,0
0.01658638,-14268,-5656,592,-1856,1126,5293,0
0.01658329,-11632,-3960,-292,-1872,-2631,14085,0
0.01658369,-12624,-1720,-2356,-1888,-19036,25023,0
0.01658048,-13228,-6728,-5864,-1888,4336,32767,0
0.01719987,-15056,4240,-13896,-1888,32767,-25760,0
0.01658192,-17108,-1720,-7844,-1888,2809,-32768,0
0.01658668,-13784,2628,-64,-1888,-22540,-26939,0
0.01658258,-17428,-5304,3692,-1856,-7342,-2487,0
0.01658338,-17168,456,-10328,-1840,29548,-17857,0
0.01658493,-18180,-3196,-1672,-1920,8384,8299,0
0.01658493,-15856,-2336,-2104,-1872,19958,19791,0
0.01657816,-15100,8,-6204,-1856,16561,18429,0
0.01657816,-14880,-124,-4908,-1872,6373,8614,0
0.01658376,-16968,-8228,-5436,-1872,6759,4591,0
0.01658622,-14332,-4080,-2248,-1888,-9842,15883,0
0.01658082,-13788,13064,-5140,-1856,-7456,25005,0
0.01658696,-13064,14456,-12032,-1872,-9375,6739,0
0.01658515,-15996,12440,-8308,-1872,10779,-18261,0
0.01658515,-11260,9400,-1692,-1904,20449,-15410,0
0.01658447,-18812,-3956,-5376,-1872,7117,2774,0
0.01658447,-14060,-6680,-5496,-1904,-4502,9675,0
0.01658125,-17032,112,-7748,-1856,-8262,-2670,0
0.01658686,-18352,200,-6972,-1856,-5950,-15933,0
0.01657951,-17104,-572,-3484,-1872,-4851,-19491,0
0.01658539,-15276,-1944,704,-1872,-3573,1216,0
0.01658571,-15556,-776,-4072,-1872,-819,2512,0
0.01658036,-15204,960,-4028,-1888,1625,-1688,0
0.01667991,-14340,584,-2304,-1888,2260,-4145,0
0.01667991,-14292,-1192,-212,-1872,2149,3930,0
0.01658533,-15052,-20,376,-1872,2995,13188,0
0.01658533,-20616,2148,-5868,-1840,-1637,13433,0
0.01658402,-18140,3168,-6920,-1888,-812,-332,0
0.01658535,-15904,212,-3948,-1904,2590,-5690,0
0.01658535,-15200,-1588,-588,-1856,2786,-6495,0
0.01658137,-14912,-5212,-552,-1840,-1420,6675,0
0.01658417,-15744,-3536,-5040,-1872,-6403,11517,0
0.01658417,-16308,-4904,-6968,-1840,-3808,11709,0
0.01658509,-15300,-4332,-5672,-1856,-175,15627,0
0.01658334,-14220,-1148,-8560,-1888,-1498,21292,0
0.01658464,-14584,628,-12136,-1872,1707,11043,0
0.01658049,-14872,-212,-11616,-1904,6738,-5362,0
0.01658524,-14736,-3612,-7272,-1856,5167,-13668,0
0.01658524,-16544,-5052,-4696,-1872,2219,-9831,0
0.01658001,-15876,-2536,-4004,-1872,-937,-3391,0
0.01658342,-14992,-1608,-4708,-1872,1502,1577,0
0.01658342,-12964,84,-5856,-1872,320,6857,0
0.01658328,-12044,-1908,-6256,-1888,1141,14193,0
0.0166904,-11880,-1216,-8596,-1872,1817,18407,0
0.0166904,-13804,-1472,-11508,-1888,4038,14158,0
0.01658162,-11516,488,-12032,-1872,2634,8164,0
0.01658162,-12604,-4308,-11344,-1872,805,-6886,0
0.01658165,-14552,-676,-8824,-1888,1035,-10858,0
0.01658127,-13564,-9492,-9856,-1872,9030,-23646,0
0.01658297,-12336,-13060,-5668,-1872,-1116,-25551,0
0.01658297,-13140,-9084,424,-1856,-8927,-8701,0
0.01658567,-17124,2992,-5156,-1872,-3015,597,0
0.01682616,-18036,908,-6956,-1856,-4807,-3562,0
0.01658428,-16624,-2612,-3440,-1888,-1532,-146,0
0.01658525,-15516,-2812,-5628,-1840,-3155,5322,0
0.01658525,-15608,-4004,-8192,-1856,-9863,2825,0
0.01658384,-15348,-464,-10104,-1872,2219,9839,0
0.01658384,-15604,-468,-9056,-1856,4489,855,0
0.01658475,-16716,-1924,-7176,-1888,6369,-5060,0
0.0165863,-17108,-3076,-5280,-1856,4010,-10993,0
0.01658494,-14588,-4944,-572,-1824,1303,-7826,0
0.01658494,-13240,-4640,-1720,-1888,-2455,-315,0
0.01658212,-12324,-2968,-4492,-1856,-3620,-3408,0
0.01664954,-12880,-3012,-4028,-1872,-4423,-6545,0
0.01658016,-14944,-840,-4236,-1840,-3833,-1532,0
0.01658016,-17280,-324,-5220,-1904,-1161,-829,0
0.01657315,-17640,-552,-3496,-1872,-2174,-1611,0
0.01658412,-17136,-1252,-3220,-1888,-3215,3188,0
0.01658412,-16548,-784,-4612,-1872,-3626,5711,0
0.01658407,-15592,-272,-5688,-1872,-3299,5612,0
0.01658407,-15696,-1308,-5048,-1888,-584,1705,0
0.01658865,-16284,-2836,-956,-1872,-2539,226,0
0.01658393,-14480,-3540,-6796,-1888,-2284,2993,0
0.01658393,-15312,-568,-6860,-1840,2747,1013,0
0.01658316,-15388,-868,-6052,-1856,3449,942,0
0.01658316,-14512,-1184,-5684,-1856,2584,1539,0
0.03316596,-14244,-2268,-6872,-1856,3443,782,0
0.01658891,-15512,-2116,-6692,-1872,6200,-3428,0
0.01658308,-17964,-2348,-4340,-1840,9889,-10573,0
0.01658405,-21256,-3248,-604,-1856,7797,-6260,0
0.01658505,-22292,-2092,-628,-1872,-781,8012,0
0.01658157,-25376,2488,-6540,-1872,-642,577,0
0.01658385,-22604,2084,-2700,-1888,1244,-11798,0
0.01658253,-16212,356,1700,-1872,-4135,-2509,0
0.01658514,-10372,-1416,-68,-1888,-9214,8825,0
0.01658699,-8788,-192,-4904,-1872,-8855,5051,0
0.01611433,-10408,932,-6348,-1856,-4526,3225,0
0.01658107,-12344,5640,-1824,-1904,-5314,6445,0
0.01658107,-11344,-1996,-9712,-1872,-8995,5192,0
0.01657052,-18004,-2632,-10844,-1888,671,-4949,0
0.01657367,-14140,-3164,-5988,-1888,4540,-2822,0
0.01657085,-14404,-364,-5988,-1872,7362,3352,0
0.01657006,-15148,1000,-4916,-1856,6566,1513,0
0.01657178,-14084,1644,-5128,-1872,5651,3084,0
0.01657099,-13756,-388,-6916,-1872,7285,4815,0
0.01657099,-16288,-292,-8156,-1840,9568,-302,0
0.01657894,-16760,-1828,-4868,-1856,10717,-2718,0
0.0165718,-17412,-2308,-220,-1856,7082,2676,0
0.01657037,-20196,-1068,-3316,-1856,961,8965,0
0.01642679,-17548,-1596,-6944,-1840,-1736,2534,0
0.01671778,-15728,-1252,-6200,-1856,-2776,1874,0
0.01657162,-15712,-672,-7372,-1856,-2349,2059,0
0.01657128,-15244,-436,-6756,-1840,-1511,1281,0
0.01657128,-14592,-468,-6752,-1872,-324,1707,0
0.01656992,-14208,-840,-6444,-1840,269,1087,0
0.01657092,-14216,-1536,-6360,-1856,-39,589,0
0.0165729,-14448,-1232,-6884,-1840,121,129,0
0.01657135,-15088,-1212,-7288,-1856,373,-739,0
0.01657365,-15836,-1580,-6420,-1872,472,-955,0
0.01657103,-15864,-1804,-5944,-1824,-116,464,0
0.01691919,-15340,-1520,-6596,-1856,-519,1169,0
0.01657283,-14864,-1324,-6596,-1856,-249,533,0
0.01657521,-14964,-1408,-6804,-1856,4,-297,0
0.01657604,-15360,-1244,-6660,-1872,190,-539,0
0.01657805,-15376,-1308,-6692,-1872,79,-271,0
0.01657813,-15456,-1424,-6580,-1888,10,288,0
0.01657309,-15336,-1420,-6648,-1856,-138,611,0
0.01657278,-15224,-1272,-6856,-1824,-102,-119,0
0.01657278,-15288,-1344,-6280,-1872,-119,-225,0
0.01657649,-15196,-1528,-6480,-1872,-191,119,0
0.01657868,-15180,-1408,-6620,-1856,-186,233,0
0.01657868,-15172,-1492,-6584,-1872,-180,236,0
0.01657669,-14968,-1336,-6704,-1856,-111,25,0
0.0165757,-15100,-1376,-6520,-1872,54,-348,0
0.01657343,-15256,-1320,-6548,-1840,189,-519,0
0.0165768,-15448,-1408,-6116,-1840,228,-193,0
0.0165768,-15256,-1608,-6224,-1856,-95,-10,0
0.01657349,-15412,-1432,-6432,-1888,-181,46,0
0.01658846,-15140,-1480,-6340,-1872,-188,128,0
0.01658846,-15248,-1356,-6316,-1872,-204,149,0
0.01657837,-15112,-1396,-6572,-1856,-235,-70,0
0.0165772,-15192,-1436,-6404,-1872,-28,-230,0
0.0165772,-15384,-1520,-6068,-1888,-26,-232,0
0.01657187,-15364,-1420,-6068,-1856,-84,4,0
0.0165721,-15356,-1480,-6232,-1904,-87,223,0
0.01657418,-15312,-1408,-6284,-1856,-50,167,0
0.01657418,-15368,-1440,-6204,-1856,-120,288,0
0.01657557,-15256,-1332,-6420,-1824,-151,358,0
0.01657516,-15088,-1304,-6216,-1872,-106,156,0
0.01657899,-15196,-1388,-6264,-1856,-126,121,0
0.01657598,-15252,-1352,-6248,-1872,-164,165,0
0.01657812,-15360,-1324,-6308,-1856,-32,13,0
0.01657717,-15428,-1384,-6120,-1856,-77,253,0
0.01657737,-15312,-1472,-6204,-1872,-339,356,0
0.01657661,-15188,-1448,-6180,-1872,-371,645,0
0.01657661,-15060,-1464,-6072,-1856,-813,476,0
0.01657568,-15456,-1024,-6632,-1824,-925,114,0
0.01657832,-15276,-1268,-6304,-1840,-1132,-183,0
0.01657519,-15472,-1548,-5916,-1856,-1473,578,0
0.01657157,-15544,-1596,-5532,-1856,-3056,1775,0
0.01657477,-15236,-1256,-7136,-1840,-3703,2188,0
0.01657477,-14744,-788,-7492,-1856,-1942,724,0
0.01657515,-14876,-1024,-7136,-1856,-534,192,0
0.01657515,-15124,-1104,-6676,-1840,-69,142,0
0.01657733,-15188,-1256,-6772,-1856,-15,98,0
0.01657733,-15380,-1096,-6916,-1856,194,-273,0
0.01657308,-15468,-1128,-6780,-1840,241,61,0
0.01657795,-15332,-1304,-6432,-1856,196,401,0
0.01657652,-15152,-1300,-6504,-1840,-246,923,0
0.01657457,-14836,-1112,-7040,-1872,-225,715,0
0.01657457,-14872,-1184,-6760,-1856,79,235,0
0.01657421,-15100,-1412,-6616,-1856,-301,677,0
0.0165778,-14908,-1252,-6796,-1856,-374,843,0
0.0165778,-14816,-740,-6840,-1872,-400,469,0
0.01657763,-15540,-816,-6368,-1872,-805,-472,0
0.01657763,-14756,-2416,-6504,-1840,-1648,75,0
0.01657864,-15236,-1460,-7376,-1872,-1064,-171,0
0.01657787,-15064,-1312,-6968,-1840,533,-1316,0
0.01657787,-14788,-2124,-6172,-1856,332,-987,0
0.01657355,-14112,-2316,-6368,-1840,143,481,0
0.01657724,-14624,-1724,-7216,-1824,910,-3477,0
0.01657724,-15552,-3512,-6420,-1888,-256,-6122,0
0.01657597,-15220,-3360,-4948,-1856,-3599,-6736,0
0.01657633,-16308,-1864,-6076,-1856,-1596,-9513,0
0.01657633,-16748,-1268,-5200,-1872,-190,-1933,0
0.01657606,-16440,-2236,-4504,-1856,533,877,0
0.01657559,-16312,-2148,-4576,-1856,-634,1567,0
0.01657977,-15948,-1932,-4764,-1856,-1082,2288,0
0.01657977,-15152,-1628,-5272,-1872,-1074,2060,0
0.01657769,-14932,-1328,-5464,-1840,-838,565,0
0.01657769,-15076,-1344,-5456,-1888,-687,-236,0
0.01657656,-15500,-1124,-5280,-1872,-367,-1058,0
0.01657454,-16016,-1192,-5016,-1904,257,-887,0
0.01657454,-15888,-1260,-5136,-1856,607,-343,0
0.01657453,-15724,-1480,-5008,-1824,876,-109,0
0.01657375,-15656,-1436,-5060,-1824,1128,-204,0
0.01657716,-15696,-1840,-5192,-1840,1233,-409,0
0.01657481,-15696,-2116,-4868,-1856,980,-311,0
0.01657371,-15920,-2300,-4480,-1840,178,-433,0
0.01657371,-15744,-2032,-4676,-1856,-847,23,0
0.01657291,-15856,-1488,-5068,-1824,-899,169,0
0.01657696,-15556,-1160,-4932,-1872,-167,48,0
0.01657378,-15676,-1456,-4928,-1856,565,196,0
0.01657874,-15604,-1804,-4804,-1856,835,-266,0
0.01657405,-15792,-2096,-4560,-1840,652,-164,0
0.01657529,-15924,-2076,-4896,-1872,224,-79,0
0.01657653,-15756,-1876,-4760,-1824,230,132,0
0.01658071,-15800,-1972,-4604,-1856,236,204,0
0.01658071,-15708,-1864,-4600,-1856,271,155,0
0.01546085,-15764,-1788,-4796,-1888,228,219,0
0.01769439,-15748,-1844,-4696,-1840,-7,230,0
0.01658013,-15720,-1860,-4656,-1856,-308,182,0
0.01588143,-15716,-1700,-4660,-1840,-386,-17,0
0.0165797,-15768,-1508,-4812,-1872,-358,180,0
0.0165797,-15848,-1660,-4848,-1856,11,99,0
0.01657679,-15924,-1572,-4580,-1840,285,516,0
0.01657749,-15704,-1764,-4500,-1872,354,500,0
0.01657707,-15620,-1916,-4724,-1856,316,289,0
0.01657707,-15684,-1944,-4800,-1824,116,-248,0
0.0165763,-15940,-1912,-4732,-1840,-75,-131,0
0.01658168,-15888,-1868,-4768,-1840,-264,383,0
0.01657891,-15768,-1812,-4724,-1872,-283,400,0
0.01657891,-15824,-1680,-4752,-1824,-193,344,0
0.01657743,-15652,-1540,-4620,-1872,-68,345,0
0.01658039,-15772,-1648,-4704,-1888,81,170,0
0.01657489,-15936,-1764,-4732,-1888,85,156,0
0.01657973,-15824,-1784,-4632,-1856,-45,368,0
0.0165802,-15784,-1836,-4968,-1856,-122,278,0
0.0165802,-15656,-1796,-4928,-1856,-60,144,0
0.01657948,-15612,-1808,-4876,-1872,-6,104,0
0.01657812,-15792,-1860,-4580,-1856,-5,169,0
0.01657673,-15604,-1876,-4728,-1872,51,150,0
0.01657915,-15876,-1796,-4840,-1856,-18,298,0
0.01657915,-15568,-1840,-4924,-1856,-73,58,0
0.0165767,-15860,-1716,-4784,-1840,-108,133,0
0.01657663,-15696,-1772,-4884,-1872,-280,314,0
0.01658294,-15732,-1740,-4848,-1872,-126,-2,0
0.01657569,-15708,-1904,-4792,-1856,-127,262,0
0.01657602,-15696,-1952,-4592,-1872,-103,101,0
0.01648758,-15840,-1872,-4764,-1856,-87,315,0
0.01657839,-15796,-1700,-4948,-1840,-6,190,0
0.01658073,-15952,-1836,-4888,-1840,30,-37,0
0.01657286,-15984,-1716,-4916,-1856,34,213,0
0.01657913,-15796,-1844,-4840,-1840,63,325,0
0.01657484,-15720,-1728,-4928,-1840,33,234,0
0.01657608,-15768,-1700,-4964,-1856,47,62,0
0.0165779,-15564,-1848,-4752,-1888,19,48,0
0.01657803,-15640,-1808,-4764,-1856,-74,219,0
0.01658829,-15784,-1732,-4876,-1856,9,149,0
0.01652763,-15912,-1808,-4684,-1840,124,137,0
0.01652763,-15788,-1884,-4756,-1824,56,292,0
0.01652763,-15812,-1816,-4672,-1840,39,222,0
0.01663463,-15752,-1740,-4716,-1840,0,29,0
0.01663463,-15608,-1744,-4720,-1856,-92,1,0
0.01663463,-15736,-1696,-4988,-1824,-63,-140,0
0.01663463,-15800,-1780,-4748,-1840,-94,339,0
0.01663463,-15812,-1612,-4760,-1824,-68,306,0
0.01663463,-15636,-1780,-4820,-1840,-90,206,0
0.01663463,-15812,-1708,-5000,-1840,-20,69,0
0.01663463,-15900,-1752,-4592,-1824,-20,-1,0
0.01663463,-15912,-1752,-4736,-1824,-143,289,0
0.3333333,-15792,-1772,-4728,-1824,-23,279,1
0.3333333,-15644,-1628,-4880,-1824,23,204,1
0.3333333,-15748,-1740,-4772,-1840,158,81,1
0.3333333,-15748,-1652,-4672,-1840,280,106,1
0.1326294,-15676,-1816,-4912,-1856,364,283,1
0.01658225,-15704,-1916,-4648,-1808,307,176,1
0.01658225,-15728,-1996,-4772,-1808,188,362,1
0.01658225,-15640,-2016,-4656,-1872,60,413,1
0.01657822,-15792,-1948,-4840,-1824,-56,226,1
0.01657822,-15772,-1748,-4796,-1856,-179,85,1
0.01657696,-15880,-1864,-4856,-1824,-201,265,1
0.01657696,-15920,-1732,-4864,-1872,-108,611,1
0.01657925,-15572,-1788,-4796,-1856,82,393,1
0.01657625,-15652,-1792,-4920,-1840,104,12,1
0.01657625,-15884,-1772,-5080,-1840,187,-49,1
0.01657976,-15836,-1964,-4904,-1824,60,248,1
0.01657933,-15756,-1896,-4880,-1824,-109,456,1
0.01657933,-15716,-1736,-5068,-1824,163,534,1
0.016579,-15888,-1832,-4760,-1824,85,659,1
0.016579,-15844,-1840,-4764,-1856,-283,906,1
0.0165815,-15480,-1692,-5192,-1840,-228,191,1
0.01657849,-15420,-1920,-5024,-1808,210,-486,1
0.01657849,-15676,-2216,-4868,-1856,256,-1015,1
0.01657985,-16088,-2092,-4712,-1840,-244,-334,1
0.01657985,-15892,-1820,-4928,-1824,-475,375,1
0.01657822,-15856,-1972,-4848,-1840,-358,882,1
0.01656818,-15536,-1800,-4804,-1856,-420,870,1
0.01658754,-15644,-2000,-4780,-1856,-290,-68,1
0.01658754,-15876,-1884,-4996,-1856,-284,-466,1
0.01657926,-15916,-2068,-4792,-1856,-166,12,1
0.01657798,-15772,-2136,-4952,-1856,-443,264,1
0.01657798,-15860,-1920,-4916,-1840,-496,619,1
0.01658214,-15608,-1992,-5008,-1824,-497,581,1
0.01657824,-15632,-1924,-4960,-1840,-650,459,1
0.01657824,-15956,-1812,-5084,-1856,-500,670,1
0.01658025,-15984,-1648,-4904,-1840,-414,1138,1
0.01657435,-15664,-1688,-5052,-1824,39,1371,1
0.01657435,-15584,-1616,-4720,-1824,203,1076,1
0.01657892,-15588,-1708,-4992,-1840,213,678,1
0.01658052,-16032,-1056,-5172,-1856,424,535,1
0.01658052,-16388,-1080,-5132,-1856,224,325,1
0.01658097,-15224,-3548,-5248,-1808,-995,-3312,1
0.016813,-14888,-2452,-5968,-1856,-692,2284,1
0.016813,-15420,-2288,-5392,-1840,207,-1435,1
0.01657947,-15576,-2448,-5192,-1824,149,-951,1
0.01657997,-15644,-2464,-4548,-1856,46,-37,1
0.01657997,-16192,-2212,-5096,-1824,264,902,1
0.0165764,-15724,-2196,-4972,-1856,303,1673,1
0.0165764,-15424,-1816,-5216,-1824,246,2135,1
0.01694842,-15324,-1892,-5596,-1856,570,1179,1
0.01658074,-15588,-2388,-5280,-1840,756,-379,1
0.01657746,-15608,-2980,-5096,-1824,269,-714,1
0.01658069,-15744,-3352,-5748,-1856,284,-263,1
0.01658654,-14732,-3616,-4500,-1856,323,-1498,1
0.01658596,-15088,-3316,-5020,-1824,6,810,1
0.01658613,-15484,-3052,-5404,-1856,169,-186,1
0.01658613,-15720,-3208,-5064,-1856,0,-118,1
0.01658233,-15224,-2876,-5204,-1840,-305,1109,1
0.01658417,-15564,-2776,-5084,-1840,-228,144,1
0.01658417,-15416,-2696,-5216,-1808,-282,279,1
0.01658354,-15556,-2784,-5228,-1824,-356,635,1
0.0165836,-15328,-2756,-5072,-1872,-232,525,1
0.0165836,-15340,-2516,-5260,-1824,-148,99,1
0.01658323,-15420,-2964,-4992,-1840,-100,-240,1
0.01658742,-15320,-2656,-5180,-1824,-20,171,1
0.01658316,-15436,-2396,-5220,-1872,227,-139,1
0.01658064,-15672,-2592,-5228,-1824,309,-93,1
0.01658064,-15608,-2672,-5032,-1824,523,392,1
0.01657989,-15384,-2776,-5124,-1856,925,1189,1
0.01658607,-15552,-3020,-5156,-1824,866,1638,1
0.01658115,-15340,-2804,-5216,-1824,695,1820,1
0.01658616,-15424,-2820,-5568,-1824,493,878,1
0.01658281,-15524,-3060,-5268,-1824,158,465,1
0.0165821,-15624,-3060,-5708,-1824,-75,582,1
0.01658177,-15380,-2900,-5728,-1824,-241,344,1
0.01658177,-15232,-2740,-5452,-1824,-111,271,1
0.01658429,-15164,-2852,-5156,-1808,-126,410,1
0.01658491,-15344,-2732,-5508,-1840,-125,221,1
0.01658491,-15520,-2768,-5356,-1824,-10,150,1
0.01658343,-15488,-2652,-5380,-1824,190,333,1
0.01658343,-15480,-2668,-5552,-1840,-172,676,1
0.01658613,-15268,-2644,-5644,-1856,-371,672,1
0.01658387,-15380,-2856,-5644,-1808,-444,515,1
0.01658387,-15204,-3020,-5664,-1840,-505,40,1
0.01658268,-15312,-2864,-5724,-1808,-433,-54,1
0.01659334,-15252,-2672,-5708,-1856,-422,11,1
0.01657388,-15372,-2844,-5636,-1856,-137,236,1
0.01659215,-15472,-2676,-5856,-1840,-12,383,1
0.01657183,-15544,-2804,-5616,-1840,146,566,1
0.01658534,-15536,-2752,-5548,-1824,20,889,1
0.01658534,-15220,-2728,-5852,-1824,-163,1095,1
0.04974813,-15148,-2708,-5924,-1856,-274,981,1
0.04974813,-15028,-2580,-6060,-1808,-234,567,1
0.0165855,-15116,-2660,-6024,-1856,-80,-78,1
0.01658437,-15452,-2844,-6076,-1824,-109,123,1
0.01658437,-15292,-2776,-5660,-1824,-104,379,1
0.0165835,-15212,-2700,-5740,-1856,-232,468,1
0.01658892,-15092,-2560,-6040,-1856,-70,238,1
0.01658892,-15036,-2716,-5644,-1856,89,-347,1
0.01658336,-15120,-2812,-5924,-1824,24,-304,1
0.01658336,-15272,-2712,-5812,-1840,202,-536,1
0.01658188,-15588,-2784,-5568,-1856,37,-116,1
0.01658605,-15620,-2648,-5628,-1808,-151,464,1
0.01658605,-15484,-2548,-5872,-1840,-24,370,1
0.01658407,-15316,-2620,-5856,-1856,-119,256,1
0.01641193,-15304,-2576,-5832,-1824,-2,184,1
0.0167555,-15264,-2608,-5736,-1840,-212,379,1
0.01658442,-15200,-2516,-5776,-1824,-138,151,1
0.0165844,-15344,-2636,-5888,-1840,-96,151,1
0.0165844,-15372,-2648,-5664,-1824,-184,296,1
0.01659083,-15196,-2680,-5728,-1840,-173,165,1
0.01658525,-15412,-2516,-5868,-1840,2,201,1
0.01658309,-15144,-2472,-5908,-1856,216,114,1
0.01658884,-15200,-2508,-5632,-1824,48,-105,1
0.01658461,-15380,-2560,-5920,-1824,78,-164,1
0.01658461,-15372,-2596,-5568,-1824,-42,112,1
0.01658558,-15392,-2536,-5788,-1824,-159,289,1
0.01658523,-15380,-2596,-5744,-1840,-104,256,1
0.01658523,-15412,-2576,-5792,-1840,-132,170,1
0.01658367,-15336,-2476,-5588,-1824,-119,405,1
0.016587,-15440,-2664,-5684,-1840,216,187,1
0.01658076,-15568,-2524,-5896,-1808,-39,556,1
0.01658481,-15212,-2548,-5928,-1808,41,613,1
0.01658481,-15232,-2524,-5836,-1808,53,587,1
0.01658403,-14920,-2352,-5948,-1824,36,232,1
0.01658592,-15412,-2456,-5784,-1808,-15,-99,1
0.01658609,-15316,-2576,-5744,-1808,-138,114,1
0.01658609,-15448,-2472,-5884,-1824,-13,-4,1
0.01658432,-15372,-2412,-6016,-1840,237,335,1
0.01658313,-15324,-2516,-5716,-1824,135,512,1
0.01658313,-15272,-2356,-5748,-1856,268,410,1
0.01658389,-15260,-2376,-5808,-1808,349,137,1
0.01658324,-15392,-2324,-5936,-1840,323,-74,1
0.01658324,-15444,-2568,-5712,-1840,272,159,1
0.01658493,-15436,-2564,-5900,-1840,-47,364,1
0.01658373,-15144,-2360,-5984,-1840,-159,191,1
0.01658373,-15368,-2372,-5880,-1840,-257,36,1
0.01658483,-15228,-2320,-5816,-1840,-223,237,1
0.01658478,-15328,-2252,-5896,-1840,-136,-129,1
0.01658616,-15492,-2396,-5808,-1840,128,-162,1
0.01658616,-15576,-2528,-5664,-1824,79,328,1
0.01657945,-15300,-2444,-5992,-1824,112,475,1
0.01658489,-15468,-2360,-5976,-1840,177,305,1
0.01658343,-15216,-2496,-5852,-1872,1,481,1
0.01658343,-15280,-2568,-5848,-1824,-24,146,1
0.01658535,-15224,-2444,-5840,-1824,-27,9,1
0.01659033,-15392,-2404,-5732,-1840,-162,129,1
0.01659033,-15416,-2376,-6064,-1840,-164,245,1
0.0165845,-15268,-2468,-6004,-1856,138,456,1
0.0165844,-15384,-2256,-5748,-1824,-39,429,1
0.0165819,-15208,-2416,-5868,-1808,-120,331,1
0.0165819,-15168,-2256,-5784,-1840,-76,78,1
0.01658894,-15300,-2248,-5968,-1824,-9,13,1
0.01658164,-15356,-2480,-5776,-1840,6,199,0
0.01658164,-15184,-2496,-5940,-1824,167,324,0
0.01658238,-15344,-2404,-5856,-1824,-71,225,0
0.01658449,-15232,-2316,-5872,-1808,60,-110,0
0.0165841,-15464,-2284,-5936,-1824,85,-122,0
0.0165841,-15236,-2544,-5544,-1856,247,156,0
0.01658462,-15168,-2460,-5980,-1840,81,20,0
0.01658462,-15380,-2348,-5776,-1840,78,-225,0
0.01658203,-15440,-2628,-5692,-1824,1,-18,0
0.01658464,-15392,-2596,-5920,-1808,-76,255,0
0.01658464,-15268,-2344,-5668,-1824,-209,352,0
0.01658273,-15280,-2388,-5940,-1840,-268,170,0
0.01658345,-15176,-2376,-5904,-1824,-177,27,0
0.01658345,-15264,-2320,-5784,-1824,-45,-183,0
0.01658354,-15276,-2176,-5740,-1824,150,180,0
0.01658225,-15340,-2268,-5608,-1824,-16,88,0
0.01658487,-15356,-2404,-5864,-1856,-20,-102,0
0.01658487,-15528,-2452,-5756,-1808,72,-243,0
0.01658378,-15456,-2368,-5804,-1856,80,178,0
0.01658224,-15448,-2428,-5688,-1824,68,158,0
0.0165854,-15364,-2464,-5880,-1808,13,78,0
0.0165833,-15256,-2400,-5796,-1824,-42,147,0
0.01658048,-15352,-2292,-5696,-1824,-78,-6,0
0.01658301,-15380,-2376,-5760,-1824,-78,74,0
0.01658404,-15420,-2128,-5920,-1856,42,234,0
0.01658404,-15168,-2220,-5908,-1840,10,192,0
0.01658322,-15448,-2296,-5576,-1824,45,81,0
0.01658481,-15352,-2420,-5660,-1808,3,254,0
0.01658172,-15404,-2252,-5692,-1824,19,192,0
0.01652755,-15372,-2444,-5608,-1840,-56,280,0
0.01658202,-15492,-2448,-5700,-1856,-143,298,0
0.01658202,-15456,-2432,-5636,-1840,-132,414,0
0.01657658,-15292,-2384,-5856,-1824,-112,226,0
0.01658447,-15324,-2336,-5748,-1792,-86,54,0
0.01658031,-15516,-2280,-5848,-1824,-81,227,0
0.0165823,-15420,-2436,-5696,-1824,-27,431,0
0.01658663,-15216,-2220,-5876,-1808,5,220,0
0.0165828,-15288,-2608,-5796,-1824,124,170,0
0.01658147,-15476,-2384,-5540,-1808,71,32,0
0.01658147,-15324,-2420,-5676,-1824,88,258,0
0.01657526,-15448,-2424,-5756,-1840,71,174,0
0.01658179,-15372,-2484,-5824,-1808,3,208,0
0.01658179,-15284,-2404,-5856,-1824,-41,296,0
0.01658252,-15316,-2404,-5760,-1808,-29,263,0
0.01658532,-15236,-2384,-5832,-1824,24,188,0
0.01658426,-15240,-2404,-5628,-1824,-20,176,0
0.01658426,-15192,-2528,-5884,-1824,55,221,0
0.01658472,-15352,-2548,-5908,-1856,40,122,0
0.01658199,-15312,-2688,-5652,-1840,-50,449,0
0.01658271,-15360,-2604,-5688,-1792,-165,376,0
0.01658271,-15220,-2544,-5904,-1824,-176,225,0
0.01658249,-15288,-2528,-5744,-1808,-128,52,0
0.01658368,-15384,-2632,-5688,-1840,-101,54,0
0.01658368,-15376,-2576,-5668,-1792,-113,198,0
0.01658208,-15232,-2460,-5804,-1792,-120,250,0
0.01658463,-15192,-2576,-5776,-1808,0,-35,0
0.01658555,-15632,-2648,-5888,-1824,-110,-35,0
0.01658555,-15392,-2732,-5832,-1824,-275,680,0
0.0165832,-15076,-2524,-6024,-1824,-263,593,0
0.0165821,-15176,-2620,-5896,-1792,-98,207,0
0.01657722,-15204,-2604,-6008,-1792,-36,-13,0
0.01659162,-15336,-2664,-5648,-1824,-22,4,0
0.01658439,-15380,-2740,-5820,-1824,-65,96,0
0.01658461,-15224,-2588,-5824,-1808,7,-76,0
0.01658461,-15388,-2608,-5892,-1824,43,-28,0
0.01658377,-15404,-2656,-5744,-1840,-16,238,0
0.01658632,-15336,-2736,-5760,-1824,-98,401,0
0.01658632,-15156,-2664,-6088,-1792,-5,215,0
0.01658261,-15100,-2676,-5972,-1808,125,59,0
0.01658308,-15284,-2768,-5792,-1792,96,25,0
0.01658308,-15260,-2576,-5856,-1808,19,161,0
0.01658276,-15152,-2720,-5896,-1840,107,-67,0
0.01658479,-15308,-2760,-5848,-1824,31,-93,0
0.0165838,-15216,-2752,-5924,-1840,-23,66,0
0.0165838,-15320,-2796,-5740,-1824,8,110,0
0.01658193,-15132,-2684,-5856,-1824,103,61,0
0.01666125,-15420,-2848,-5920,-1824,54,-53,0
0.01658092,-15504,-2828,-5612,-1792,-110,176,0
0.01658505,-15408,-2792,-5680,-1808,-195,332,0
0.0165845,-15232,-2828,-5796,-1824,-219,456,0
0.01658401,-15132,-2768,-5788,-1792,-141,399,0
0.01658221,-15428,-2740,-5912,-1792,13,185,0
0.01658325,-15300,-2808,-5716,-1808,55,283,0
0.01658325,-15148,-2764,-5708,-1840,87,243,0
0.01658286,-15336,-2884,-5948,-1840,129,281,0
0.01658534,-15212,-2932,-5780,-1840,66,207,0
0.0165829,-15184,-2740,-5776,-1792,-30,255,0
0.01658371,-15304,-2876,-5716,-1824,-10,122,0
0.01658371,-15168,-2728,-5828,-1824,92,-43,0
0.01658392,-15196,-2832,-5832,-1856,174,-302,0
0.01658442,-15356,-2744,-5776,-1824,210,-306,0
0.01658442,-15480,-2772,-5700,-1824,121,33,0
0.01658283,-15380,-2904,-5588,-1824,127,142,0
0.01658608,-15352,-2856,-5736,-1808,35,351,0
0.01658409,-15384,-2812,-5676,-1840,-16,457,0
0.01658482,-15184,-2816,-5812,-1808,13,297,0
0.01658482,-15196,-2952,-5832,-1792,8,217,0
0.0165816,-15312,-2928,-5744,-1840,12,284,0
0.0165816,-15300,-2880,-5856,-1808,-1,363,0
0.01658431,-15256,-2784,-5728,-1792,7,301,0
0.01658434,-15384,-2888,-5752,-1776,-83,535,0
0.01657348,-15268,-2884,-5668,-1824,-82,519,0
0.01657348,-15244,-2868,-5820,-1760,-15,338,0
0.01657306,-15060,-2828,-5708,-1824,-31,294,0
0.01657048,-15160,-2900,-5908,-1856,8,198,0
0.01657048,-15216,-2948,-5752,-1792,13,170,0
0.0165699,-15176,-2944,-5792,-1792,-107,374,0
0.0165699,-15164,-2800,-5808,-1808,-41,346,0
0.01656888,-15160,-2856,-5932,-1808,44,72,0
0.01656888,-15268,-2820,-5724,-1808,-81,124,0
0.0165689,-15332,-2980,-5800,-1824,-18,93,0
0.01657239,-15420,-2936,-5956,-1808,-14,122,0
0.01657239,-15152,-2764,-5836,-1824,-32,304,0
0.01657436,-15176,-2896,-5940,-1808,72,149,0
0.01657367,-15304,-2864,-5896,-1808,168,80,0
0.01657367,-15096,-2836,-5908,-1824,78,197,0
0.01681443,-15208,-2936,-5900,-1808,105,187,0
0.01657299,-15172,-3012,-5812,-1840,40,276,0
0.0165704,-15312,-2948,-5720,-1792,3,388,0
0.01657216,-15148,-2864,-5956,-1792,69,265,0
0.01657251,-15128,-2856,-5908,-1792,-7,254,0
0.01657193,-15220,-2888,-5908,-1808,-14,207,0
0.01657193,-15332,-2980,-5844,-1808,-108,190,0
0.01657141,-15256,-2936,-5848,-1808,-180,320,0
0.01657216,-15216,-2976,-6016,-1808,-117,105,0
0.01655495,-15216,-2920,-5892,-1824,32,-44,0
0.01656992,-15320,-2616,-5528,-1824,6,145,0
0.01657248,-15260,-2784,-5928,-1808,-44,338,0
0.01656898,-15212,-3036,-5684,-1824,22,229,0
0.01656898,-15372,-2908,-5876,-1792,-17,253,0
0.01657198,-15132,-2840,-5900,-1792,5,284,0
0.0165705,-15052,-2808,-6004,-1824,70,267,0
0.0165705,-15240,-2868,-5684,-1808,12,133,0
0.01656901,-15380,-2812,-5808,-1824,-57,262,0
0.01656912,-15236,-2804,-5804,-1840,-66,423,0
0.01656942,-15180,-2868,-5812,-1824,-41,158,0
0.01657182,-15364,-2948,-5876,-1824,-66,117,0
0.01657182,-15260,-2772,-5808,-1808,-91,207,0
0.01656731,-15124,-2804,-5928,-1792,-73,265,0
0.01657232,-15180,-2880,-5936,-1808,-26,186,0
0.01657232,-15232,-2932,-5772,-1808,-8,125,0
0.01656737,-15192,-2936,-5856,-1840,-91,244,0
0.01656907,-15068,-2812,-6004,-1808,-36,87,0
0.01656896,-15280,-2780,-5868,-1824,74,-47,0
0.01657128,-15404,-2916,-5776,-1808,-41,142,0
0.01656897,-15164,-2872,-6068,-1776,-76,244,0
0.01656917,-15300,-2900,-5936,-1792,-46,139,0
0.01657003,-15160,-2840,-5916,-1792,-58,165,0
0.01660233,-15276,-2872,-5728,-1824,-46,118,0
0.0165797,-15232,-2860,-5952,-1808,-83,130,0
0.01657826,-15240,-2836,-5820,-1808,20,74,0
0.01657826,-15216,-2920,-5908,-1808,71,97,0
0.01657883,-15504,-2892,-5824,-1824,-2,130,0
0.01657774,-15148,-2864,-5872,-1792,-29,187,0
0.01657936,-15336,-2836,-5792,-1776,74,96,0
0.01657936,-15328,-2956,-5908,-1792,-18,144,0
0.0165777,-15224,-2856,-5912,-1776,-91,286,0
0.01657481,-15220,-2908,-5688,-1808,-60,155,0
0.01657598,-15240,-2984,-5704,-1824,-97,147,0
0.01658028,-15328,-2980,-5708,-1792,-82,170,0
0.01657817,-15184,-2828,-5932,-1824,-82,193,0
0.01658362,-15124,-2816,-5780,-1824,-74,61,0
0.01657874,-15336,-3008,-5752,-1808,-91,236,0
0.01657751,-15148,-2868,-5920,-1824,-92,324,0
0.01657746,-15092,-2816,-5892,-1792,-103,182,0
0.01657746,-15328,-2892,-5952,-1792,-68,131,0
0.01657714,-15260,-2880,-5700,-1808,7,120,0
0.01657854,-15292,-2880,-5888,-1776,26,179,0
0.01658093,-15244,-2896,-5860,-1824,1,163,0
0.01657567,-15168,-2852,-5824,-1792,-14,148,0
0.01657567,-15196,-2868,-5724,-1808,35,50,0
0.01657834,-15396,-2828,-5948,-1808,-5,180,0
0.01657834,-15228,-2884,-5840,-1792,-81,233,0
0.0165777,-15200,-2832,-5900,-1808,-47,108,0
0.01657938,-15276,-2896,-6020,-1824,-103,159,0
0.01658027,-15316,-2900,-5820,-1792,-115,216,0
0.01657704,-15276,-2860,-5956,-1824,-111,330,0
0.01658117,-15240,-2884,-5888,-1808,-35,135,0
0.01657768,-15140,-2900,-5956,-1776,-64,168,0
0.01657804,-15324,-2824,-5920,-1808,-77,201,0
0.0165865,-15096,-2844,-5876,-1792,-64,124,0
0.01658027,-15296,-2868,-5800,-1824,-62,142,0
0.01657626,-15124,-2928,-5884,-1840,-92,96,0
0.01657708,-15368,-2704,-5800,-1856,-54,82,0
0.01657708,-15220,-2800,-5880,-1792,-77,267,0
0.01658013,-15240,-2800,-5908,-1808,-11,116,0
0.01658013,-15232,-2884,-5676,-1840,-42,141,0
0.01658048,-15332,-2892,-5760,-1808,-84,160,0
0.01657855,-15164,-2836,-5948,-1824,-38,222,0
0.01657893,-15220,-2852,-5940,-1824,-20,76,0
0.01657887,-15328,-2912,-5668,-1824,-36,217,0
0.01657887,-15200,-2856,-5700,-1808,-54,248,0
0.01657945,-15104,-2904,-5944,-1792,-31,69,0
0.01657945,-15288,-2800,-5928,-1760,-70,95,0
0.01658056,-15228,-2856,-5888,-1808,-98,161,0
0.0165759,-15232,-2920,-5844,-1792,-110,204,0
0.01658063,-15180,-2900,-5956,-1776,-52,193,0
0.01657827,-15204,-2916,-5848,-1824,-86,158,0
0.01657827,-15208,-2944,-5896,-1776,-97,165,0
0.01657928,-15240,-2880,-5860,-1808,-95,116,0
0.0165797,-15300,-2776,-5768,-1824,-117,140,0
0.0165797,-15296,-2832,-5760,-1776,-108,100,0
0.01658154,-15148,-2820,-5976,-1840,-108,164,0
0.01657879,-15188,-2876,-5828,-1792,-68,205,0
0.01657879,-15244,-2928,-5808,-1824,-51,116,0
0.01658042,-15228,-2852,-5792,-1808,-91,244,0
0.01658023,-15244,-2888,-5824,-1824,-38,151,0
0.01658023,-15172,-2808,-5952,-1824,-87,179,0
0.01657837,-15200,-2752,-5840,-1808,-101,192,0
0.0165787,-15328,-2852,-5844,-1776,-54,220,0
0.0165787,-15292,-2868,-5880,-1792,-12,124,0
0.01657899,-15236,-2812,-5860,-1792,-36,105,0
0.01657701,-15160,-2812,-5820,-1808,-108,258,0
0.01657701,-15116,-2852,-5960,-1824,-126,204,0
0.01658059,-15008,-2860,-5772,-1792,-72,108,0
0.01657703,-15252,-2844,-5772,-1792,-62,85,0
0.01657972,-15280,-2856,-5840,-1808,-76,163,0
0.01657972,-15152,-2956,-5916,-1792,-97,264,0
0.01661732,-15304,-2860,-5828,-1840,-31,70,0
0.01658305,-15120,-2816,-5940,-1824,-25,172,0
0.01658361,-15148,-2876,-5932,-1808,-18,164,0
0.01658269,-15416,-2956,-5828,-1808,-73,211,0
0.01658484,-15232,-2836,-5860,-1840,-65,192,0
0.01658202,-15176,-2876,-5728,-1808,-44,140,0
0.01658202,-15244,-2920,-5948,-1792,-58,127,0
0.01658843,-15156,-2860,-5792,-1792,-94,161,0
0.01658506,-15208,-2824,-5872,-1808,-83,185,0
0.01658518,-15224,-2744,-5812,-1824,-56,92,0
0.01658518,-15284,-2860,-5920,-1824,-84,188,0
0.0165836,-15248,-2896,-5992,-1808,-75,204,0
0.01658498,-15260,-2796,-5960,-1808,-83,144,0
0.01658227,-15300,-2796,-5864,-1808,-76,149,0
0.01658227,-15212,-2836,-5952,-1792,-62,200,0
0.01658439,-15312,-2860,-5840,-1792,-93,160,0
0.01658338,-15224,-2856,-5716,-1808,-84,154,0
0.01658228,-15300,-2820,-5868,-1824,-86,151,0
0.01658228,-15208,-2896,-5740,-1792,-94,224,0
0.01649462,-15144,-2820,-5884,-1808,-70,151,0
0.01658362,-15068,-2804,-5952,-1776,-56,162,0
0.01658196,-15204,-2864,-5784,-1792,-83,119,0
0.01658196,-15212,-2916,-6064,-1808,-126,243,0
0.01658246,-15152,-2856,-5872,-1824,-62,216,0
0.01658327,-15276,-2964,-5804,-1792,-69,173,1
0.01648744,-15268,-2856,-5868,-1792,-99,248,1
0.01658275,-15284,-2872,-5944,-1808,-38,155,1
0.01658286,-15104,-2904,-5940,-1824,-86,196,1
0.01658367,-15076,-2896,-5816,-1792,-147,177,1
0.01658246,-15212,-2992,-5928,-1824,-82,105,1
0.01658246,-15368,-2804,-5888,-1792,-61,124,1
0.01658042,-15364,-2960,-5920,-1808,-89,231,1
0.01658622,-15096,-2764,-5768,-1776,-70,142,1
0.01658622,-15116,-2896,-5856,-1776,-49,91,1
0.01658056,-15268,-2940,-5892,-1808,-55,224,1
0.01658637,-15172,-2972,-5876,-1792,-88,207,1
0.01657948,-15328,-2840,-5928,-1792,-83,155,1
0.01658284,-15312,-2816,-5852,-1792,-58,94,1
0.01658592,-15244,-2848,-5924,-1808,-87,187,1
0.01658205,-15236,-2808,-5824,-1760,-61,146,1
0.01658571,-15108,-2764,-5924,-1792,-61,172,1
0.01659683,-15304,-2936,-5976,-1824,-70,191,1
0.01658342,-15192,-2936,-5820,-1840,-83,156,1
0.01658695,-15172,-2744,-5860,-1808,-80,113,1
0.01658292,-15248,-2860,-5876,-1824,-61,178,1
0.01658293,-15428,-2916,-5852,-1792,-73,163,1
0.01658434,-15240,-2840,-5824,-1776,-96,164,1
0.01658434,-15184,-2812,-5848,-1776,-70,157,1
0.01658136,-15280,-2868,-5948,-1776,-36,95,1
0.01658672,-15356,-2720,-6004,-1776,-75,84,1
0.01657443,-15160,-2884,-5956,-1792,-67,153,1
0.0165912,-15136,-2852,-5788,-1776,-136,294,1
0.01658348,-15172,-2812,-5816,-1808,-151,274,1
0.01658348,-15140,-2812,-5748,-1808,-76,126,1
0.01658295,-15208,-2752,-5848,-1792,-35,142,1
0.01658233,-15172,-2884,-5736,-1760,-71,244,1
0.01658622,-15260,-2872,-5900,-1776,-86,177,1
0.01658622,-15284,-2800,-5856,-1792,-90,149,1
0.01658176,-15144,-2800,-5760,-1792,-148,180,1
0.01658176,-15116,-2848,-5908,-1840,-146,98,1
0.0165849,-15248,-2812,-5800,-1808,-151,59,1
0.01658452,-15260,-2856,-5780,-1792,-104,48,1
0.01658339,-15288,-2764,-5820,-1792,-146,296,1
0.0165833,-15204,-2780,-5844,-1808,-144,182,1
0.01658381,-15296,-2716,-5700,-1824,-92,76,1
0.01658381,-15336,-2840,-5828,-1792,-112,120,1
0.01658464,-15232,-2868,-6024,-1792,-103,159,1
0.01658376,-15204,-2812,-6012,-1792,-82,46,1
0.01658567,-15304,-2672,-5864,-1808,8,79,1
0.01705229,-15332,-2644,-5716,-1760,-123,109,1
0.01658662,-15208,-2796,-5792,-1792,-144,117,1
0.01658662,-15220,-2828,-5900,-1840,-133,118,1
0.01658347,-15188,-2824,-5664,-1808,-179,185,1
0.01658318,-15288,-2856,-5852,-1792,-93,115,1
0.01658177,-15252,-2784,-5788,-1808,-94,167,1
0.01658177,-15304,-2848,-5864,-1776,-120,217,1
0.01658576,-15380,-2704,-5756,-1808,-165,125,1
0.01658576,-15108,-2840,-5860,-1792,-180,132,1
0.01658211,-15348,-2744,-5820,-1792,-103,22,1
0.01658282,-15424,-2816,-5752,-1760,-131,55,1
0.01658282,-15196,-2724,-5760,-1808,-120,6,1
0.01658246,-15396,-2868,-5912,-1824,-90,-97,1
0.01658194,-15396,-2852,-5772,-1760,-29,97,1
0.01658194,-15180,-2684,-5940,-1808,13,291,1
0.01658497,-15236,-2724,-6052,-1808,-126,283,1
0.01658371,-15244,-2748,-5852,-1792,-10,66,1
0.01658371,-15332,-2732,-5696,-1776,-70,223,1
0.01658426,-15208,-2708,-5888,-1792,-63,280,1
0.01659043,-15164,-2764,-5796,-1808,-55,91,1
0.01659043,-15216,-2660,-5984,-1808,-62,107,1
0.01658374,-15324,-2828,-5780,-1792,-77,100,1
0.01657894,-15228,-2748,-5792,-1792,-119,284,1
0.01658117,-15176,-2724,-5836,-1808,-58,121,1
0.01658433,-15372,-2788,-5728,-1760,-55,-15,1
0.0165851,-15616,-2768,-5748,-1792,-58,348,1
0.01658248,-15284,-2628,-5772,-1792,86,101,1
0.01658247,-15264,-2624,-5568,-1792,145,242,1
0.01658364,-15224,-2624,-5852,-1776,-28,319,1
0.01658364,-15144,-2740,-5668,-1792,-11,200,1
0.01658451,-15296,-2808,-5772,-1808,-47,121,1
0.01658333,-15240,-2624,-5700,-1808,-112,68,1
0.01658232,-15412,-2596,-5732,-1792,-117,308,1
0.01657962,-15244,-2640,-5684,-1824,-65,188,1
0.01657962,-15364,-2656,-5688,-1792,-70,131,1
0.01658117,-15272,-2580,-5824,-1792,-85,196,1
0.01658117,-15236,-2636,-5840,-1808,-63,82,1
0.01658641,-15276,-2588,-5648,-1808,50,-39,1
0.01658163,-15424,-2580,-5516,-1760,-21,170,1
0.01658163,-15220,-2668,-5776,-1808,-78,265,1
0.01658278,-15288,-2696,-5816,-1776,-59,64,1
0.01658278,-15416,-2576,-5712,-1808,-63,173,1
0.01658,-15384,-2640,-5740,-1776,14,253,1
0.01658434,-15340,-2612,-5976,-1824,-9,126,1
0.01658434,-15380,-2536,-5788,-1808,20,198,1
0.01658356,-15180,-2520,-5684,-1760,-154,220,1
0.01657925,-15408,-2688,-5684,-1840,-85,152,1
0.01657925,-15312,-2444,-5644,-1776,123,48,1
0.01657982,-15468,-2592,-5976,-1808,116,209,1
0.01658112,-15328,-2604,-6008,-1808,43,225,1
0.01658112,-15248,-2544,-5676,-1776,43,306,1
0.01657695,-15204,-2572,-5812,-1792,4,215,1
0.01657897,-15320,-2396,-5760,-1792,257,-191,1
0.01657835,-15488,-2444,-5484,-1840,-65,0,1
0.01657835,-15140,-2172,-5808,-1808,92,11,1
0.01658016,-15280,-2096,-5804,-1792,1,79,1
0.01658002,-15284,-2388,-5824,-1824,1,130,1
0.01658002,-15296,-2460,-5600,-1776,-27,25,1
0.01630538,-15456,-2472,-5688,-1824,-73,93,1
0.01685544,-15364,-2328,-5844,-1760,-75,257,1
0.01657699,-15432,-2400,-6020,-1792,-50,201,1
0.01658209,-15456,-2348,-5700,-1824,69,289,1
0.01657892,-15452,-2316,-5724,-1824,-64,366,1
0.01658029,-15304,-2408,-5844,-1792,-53,317,1
0.01658325,-15368,-2304,-5920,-1760,134,-34,1
0.01658325,-15284,-2348,-5932,-1776,101,-226,1
0.016574,-15328,-2408,-5780,-1792,148,-193,1
0.01658344,-15388,-2048,-5840,-1808,247,-351,1
0.01657765,-15316,-2260,-5456,-1792,50,-70,1
0.01658035,-15464,-2236,-5572,-1792,-50,223,1
0.01658035,-15524,-1996,-5492,-1776,-124,270,1
0.01657934,-15340,-2216,-5740,-1792,-61,327,1
0.01657726,-15452,-2000,-5788,-1792,-85,323,1
0.01657726,-15456,-2052,-5720,-1792,21,342,1
0.01657474,-15452,-2096,-5644,-1824,-38,501,1
0.01658173,-15448,-1988,-5640,-1792,-25,475,1
0.01658173,-15472,-2156,-5728,-1808,-23,305,1
0.01657953,-15320,-2044,-5884,-1808,-115,487,1
0.01657953,-15308,-2100,-5840,-1792,-81,100,1
0.01657837,-15304,-2136,-5756,-1808,-65,3,1
0.01652824,-15432,-2004,-5804,-1744,-129,75,1
0.01673408,-15336,-2044,-5468,-1776,-88,66,1
0.0165789,-15408,-2108,-5760,-1808,-130,235,1
0.01658012,-15468,-2072,-5700,-1808,-26,261,1
0.01657577,-15428,-2112,-5656,-1792,-62,262,1
0.01657933,-15384,-2128,-5948,-1776,-124,286,1
0.0165795,-15172,-2068,-5736,-1760,-108,-100,1
0.0165795,-15564,-2232,-5520,-1808,72,-206,1
0.01657853,-15352,-2088,-5844,-1792,-106,-156,1
0.01657858,-15544,-2132,-5808,-1824,-127,-137,1
0.01657938,-15576,-2164,-5616,-1792,-112,256,1
0.01657853,-15452,-2312,-5780,-1776,-76,266,1
0.01657876,-15348,-2176,-5784,-1808,-14,121,1
0.01657919,-15556,-2216,-5532,-1792,-51,95,1
0.0165797,-15464,-2140,-5604,-1792,-151,198,1
0.0165797,-15328,-2060,-5772,-1792,-77,1,1
0.01658079,-15596,-2168,-5552,-1792,-52,-71,1
0.01657418,-15576,-2232,-5544,-1792,-9,259,1
0.01657418,-15532,-2300,-5524,-1792,-30,696,1
0.0165782,-15196,-2300,-5396,-1760,-124,494,1
0.01657982,-15156,-2168,-5796,-1808,38,-80,1
0.01658039,-15512,-2332,-5576,-1792,-20,-139,1
0.01657874,-15560,-2176,-5644,-1808,-27,154,1
0.01657924,-15396,-2156,-5772,-1792,-32,235,1
0.0165794,-15368,-2196,-5692,-1776,-88,204,1
0.01657845,-15464,-2160,-5692,-1776,-22,67,1
0.01657637,-15440,-2108,-5748,-1808,-113,49,1
0.01657871,-15388,-2188,-5620,-1792,-26,170,1
0.01658099,-15444,-2068,-5652,-1792,-90,73,1
0.01658099,-15356,-2212,-5720,-1808,-102,239,1
0.01657761,-15420,-2076,-5556,-1792,-28,59,1
0.01657555,-15564,-2164,-5556,-1776,-20,315,1
0.01657768,-15328,-2028,-5712,-1776,-29,264,1
0.01657768,-15400,-2188,-5792,-1776,-14,66,1
0.01658023,-15544,-2156,-5548,-1760,-53,93,1
0.01658007,-15584,-2184,-5644,-1792,-111,288,1
0.01657906,-15576,-2104,-5648,-1776,-84,274,1
0.01657931,-15336,-2092,-5612,-1776,-14,84,1
0.01658222,-15448,-2104,-5760,-1776,32,91,1
0.03315802,-15516,-2140,-5680,-1776,-79,300,1
0.03315802,-15348,-2164,-5796,-1760,-108,342,1
0.01658238,-15376,-2128,-5576,-1808,-75,209,1
0.0165782,-15296,-2068,-5768,-1792,17,53,1
0.0165785,-15528,-2276,-5584,-1792,-46,154,1
0.01658258,-15352,-2084,-5816,-1808,-84,139,1
0.01662303,-15436,-2244,-5792,-1744,-56,176,1
0.01662303,-15324,-2132,-5748,-1792,-65,176,1
0.01658542,-15400,-2084,-5712,-1776,-80,138,1
0.01658246,-15524,-2108,-5568,-1760,-46,71,1
0.01658246,-15452,-2268,-5552,-1760,-84,159,1
0.01658774,-15440,-2208,-5596,-1792,-61,300,1
0.01658598,-15448,-2128,-5672,-1792,-40,209,1
0.01658598,-15440,-2240,-5724,-1792,-75,93,1
0.01658614,-15376,-2036,-5732,-1776,-78,195,1
0.01658706,-15424,-2076,-5604,-1840,-22,-97,1
0.01658595,-15640,-2196,-5432,-1808,-77,180,1
0.01658783,-15384,-2076,-5872,-1792,-118,293,1
0.01658513,-15216,-2112,-5800,-1760,-23,169,1
0.01658513,-15496,-2232,-5752,-1760,27,28,1
0.01658513,-15704,-2276,-5496,-1776,20,166,1
0.01658918,-15520,-2180,-5648,-1760,-127,290,1
0.01658918,-15332,-2140,-5688,-1760,-49,105,1
0.0165888,-15508,-2244,-5688,-1744,36,61,1
0.01658592,-15440,-2188,-5400,-1792,-211,474,1
0.01658722,-15208,-2124,-5784,-1792,-102,186,1
0.01658693,-15424,-2188,-5576,-1792,-149,-36,1
0.01658693,-15556,-2272,-5644,-1776,-57,50,1
0.01658908,-15428,-2220,-5768,-1792,-69,310,1
0.01658908,-15304,-2168,-5704,-1760,-4,222,1
0.01658674,-15528,-2244,-5448,-1776,45,130,1
0.01658913,-15384,-2084,-5568,-1760,-15,154,1
0.01658913,-15388,-2144,-5588,-1760,-72,267,1
0.01658325,-15256,-2088,-5932,-1808,-115,154,1
0.01658753,-15388,-2220,-5652,-1760,-12,-60,1
0.01658753,-15600,-2176,-5548,-1792,-61,168,1
0.01659053,-15496,-2200,-5700,-1792,-93,262,1
0.01659053,-15292,-2136,-5676,-1792,-45,142,1
0.01643172,-15336,-2052,-5544,-1776,-76,91,1
0.01674128,-15588,-2180,-5440,-1728,-63,94,1
0.01658595,-15488,-2164,-5492,-1776,-69,195,1
0.01658591,-15448,-2240,-5552,-1776,-87,259,1
0.01658574,-15392,-2220,-5692,-1760,-72,170,1
0.01658601,-15408,-2112,-5708,-1776,-24,85,1
0.01658967,-15448,-2268,-5696,-1760,-102,39,1
0.01658707,-15572,-2208,-5600,-1776,5,128,1
0.01658198,-15476,-2176,-5528,-1792,-153,186,1
0.01658689,-15452,-2084,-5868,-1792,-177,254,1
0.01658479,-15380,-2200,-5740,-1744,-95,104,1
0.01658499,-15480,-2216,-5624,-1808,-72,136,1
0.01658409,-15584,-2176,-5552,-1792,-100,124,1
0.0165875,-15448,-2120,-5676,-1792,-37,204,1
0.01658662,-15316,-2272,-5552,-1792,-23,135,1
0.04976577,-15368,-2164,-5448,-1776,-60,161,1
0.04976577,-15536,-2208,-5700,-1808,-241,130,1
0.01658158,-15440,-2188,-5740,-1808,-145,35,1
0.01658638,-15440,-2208,-5652,-1760,-80,87,1
0.01658638,-15408,-2164,-5588,-1776,-32,285,1
0.01658842,-15368,-2128,-5656,-1776,0,176,1
0.01658842,-15440,-2248,-5652,-1744,4,78,1
0.01658498,-15508,-2120,-5584,-1808,-49,154,1
0.01658567,-15376,-2176,-5556,-1744,-107,142,1
0.01658567,-15316,-2248,-5428,-1760,-194,120,1
0.0165858,-15372,-2172,-5552,-1760,-176,167,1
0.01658235,-15384,-2196,-5668,-1760,-139,204,1
0.01658235,-15344,-2164,-5724,-1776,-49,290,1
0.01658784,-15356,-2108,-5648,-1760,-103,197,1
0.01658601,-15500,-2256,-5588,-1776,-40,148,1
0.01658531,-15364,-2208,-5584,-1792,3,214,1
0.01658531,-15536,-2204,-5708,-1760,-76,176,1
0.0165761,-15452,-2436,-5672,-1776,-138,227,1
0.01658472,-15360,-2332,-5668,-1776,-130,162,1
0.01658835,-15392,-2236,-5644,-1760,-149,245,0
0.01658858,-15440,-2264,-5628,-1792,-125,193,0
0.01658919,-15320,-2272,-5604,-1744,-127,100,0
0.01658919,-15452,-2100,-5692,-1792,-118,61,0
0.01658736,-15364,-2284,-5380,-1792,-103,185,0
0.01658866,-15412,-2128,-5744,-1760,-75,247,0
0.01655003,-15372,-2248,-5748,-1760,15,32,0
0.01655003,-15440,-2284,-5560,-1776,-43,184,0
0.01658565,-15432,-2360,-5408,-1776,-92,232,0
0.01658993,-15276,-2196,-5572,-1792,-88,171,0
0.01658755,-15532,-2264,-5768,-1792,-24,133,0
0.01658755,-15548,-2216,-5532,-1776,-26,229,0
0.01658487,-15368,-2260,-5612,-1760,-204,271,0
0.01658644,-15280,-2140,-5500,-1776,-26,60,0
0.01658644,-15396,-2216,-5512,-1792,-165,102,0
0.01658421,-15456,-2184,-5664,-1776,-13,195,0
0.0165877,-15472,-2244,-5724,-1776,-64,103,0
0.01658737,-15480,-2244,-5608,-1744,-59,246,0
0.01658737,-15392,-2192,-5588,-1792,-20,113,0
0.01658634,-15436,-2240,-5556,-1760,-138,174,0
0.01658668,-15304,-2256,-5556,-1760,-105,179,0
0.01658606,-15396,-2184,-5596,-1776,-53,113,0
0.01659151,-15480,-2148,-5468,-1792,-28,165,0
0.01658662,-15432,-2244,-5572,-1776,-94,186,0
0.01657391,-15476,-2156,-5552,-1776,-59,67,0
0.01658723,-15420,-2268,-5708,-1760,-105,184,0
0.01658723,-15384,-2260,-5716,-1760,-101,97,0
0.01658558,-15556,-2188,-5604,-1776,-21,138,0
0.01658332,-15644,-2280,-5580,-1776,-68,193,0
0.01659083,-15256,-2160,-5680,-1760,-69,213,0
0.01658909,-15328,-2200,-5652,-1744,-75,121,0
0.01659216,-15404,-2216,-5588,-1792,-112,195,0
0.01658839,-15484,-2176,-5676,-1760,-141,169,0
0.01659006,-15304,-2128,-5788,-1744,-150,66,0
0.01658697,-15552,-2240,-5436,-1760,25,64,0
0.01658633,-15524,-2156,-5304,-1760,-206,340,0
0.01658769,-15288,-2116,-5800,-1792,-186,239,0
0.01658909,-15352,-2008,-5780,-1792,-86,-31,0
0.01658596,-15540,-2276,-5444,-1776,-67,-43,0
0.01658527,-15388,-2104,-5712,-1760,-77,35,0
0.01658725,-15504,-2216,-5640,-1792,-82,41,0
0.01658725,-15416,-2400,-5796,-1776,-44,69,0
0.01658766,-15440,-2436,-5432,-1744,-70,308,0
0.016587,-15416,-2236,-5380,-1760,-186,470,0
0.01658839,-15244,-2272,-5568,-1744,-81,314,0
0.01658839,-15372,-2264,-5596,-1776,-95,-57,0
0.01658811,-15524,-2360,-5684,-1760,-56,-94,0
0.01658756,-15416,-2328,-5836,-1760,-66,-4,0
0.01658608,-15464,-2220,-5580,-1760,-16,62,0
0.01658608,-15536,-2356,-5524,-1792,42,265,0
0.01658599,-15424,-2288,-5628,-1776,62,171,0
0.01658749,-15428,-2316,-5560,-1776,76,107,0
0.01658547,-15376,-2552,-5556,-1760,5,119,0
0.016587,-15492,-2660,-5488,-1760,-68,189,0
0.01658794,-15396,-2352,-5412,-1808,23,155,0
0.01658794,-15328,-2432,-5400,-1776,-43,122,0
0.01658848,-15496,-2340,-5444,-1760,-34,109,0
0.01658812,-15400,-2360,-5424,-1744,-152,260,0
0.01658778,-15268,-2368,-5508,-1744,-198,387,0
0.01658622,-15372,-2312,-5576,-1760,-210,269,0
0.01658622,-15428,-2360,-5536,-1776,-217,337,0
0.01658597,-15308,-2352,-5588,-1776,-170,328,0
0.01658824,-15420,-2448,-5576,-1776,-241,164,0
0.01658682,-15344,-2412,-5536,-1760,-64,42,0
0.01658561,-15444,-2340,-5548,-1776,5,27,0
0.01658198,-15516,-2404,-5364,-1776,-69,-37,0
0.01658801,-15572,-2568,-5344,-1744,-93,130,0
0.01658699,-15256,-2392,-5524,-1792,-98,53,0
0.0165855,-15388,-2424,-5624,-1776,-29,-5,0
0.01658678,-15400,-2420,-5768,-1776,-10,-94,0
0.01658825,-15552,-2520,-5564,-1760,-67,92,0
0.01659035,-15496,-2488,-5568,-1760,-117,278,0
0.01658899,-15532,-2512,-5496,-1760,-83,232,0
0.01658899,-15448,-2380,-5428,-1808,-139,200,0
0.01658861,-15556,-2484,-5532,-1760,-155,149,0
0.01658518,-15384,-2404,-5624,-1760,-88,127,0
0.01658951,-15448,-2368,-5532,-1776,-10,14,0
0.01658879,-15440,-2400,-5444,-1760,42,110,0
0.01658879,-15380,-2392,-5584,-1776,-18,122,0
0.01658934,-15416,-2456,-5544,-1744,-9,235,0
0.01658718,-15416,-2340,-5516,-1760,-13,154,0
0.01658718,-15600,-2608,-5640,-1776,5,80,0
0.01658833,-15368,-2520,-5364,-1744,-39,236,0
0.01658648,-15620,-2444,-5460,-1792,31,164,0
0.01658672,-15396,-2476,-5596,-1760,-46,155,0
0.01658672,-15364,-2596,-5576,-1760,-60,57,0
0.01658643,-15396,-2552,-5500,-1792,-67,175,0
0.01658792,-15348,-2480,-5556,-1760,-83,292,0
0.01658629,-15460,-2444,-5540,-1760,7,166,0
0.01658629,-15428,-2516,-5604,-1776,-66,358,0
0.01658452,-15412,-2488,-5628,-1744,-8,251,0
0.01658789,-15400,-2492,-5576,-1776,-28,157,0
0.01658789,-15300,-2568,-5484,-1760,-97,110,0
0.01658933,-15424,-2556,-5716,-1760,-61,67,0
0.01607682,-15508,-2492,-5536,-1760,-134,225,0
0.01658764,-15308,-2552,-5440,-1760,-82,229,0
0.01658395,-15448,-2608,-5744,-1760,-113,192,0
0.01659946,-15444,-2512,-5624,-1792,-103,75,0
0.0165897,-15476,-2624,-5516,-1776,-161,94,0
0.0165897,-15344,-2548,-5688,-1744,-265,476,0
0.01658842,-15416,-2456,-5484,-1728,-216,324,0
0.01658929,-15456,-2428,-5720,-1792,-207,237,0
0.01658652,-15408,-2416,-5740,-1760,-127,283,0
0.01658652,-15288,-2548,-5648,-1776,-57,229,0
0.03317801,-15376,-2484,-5800,-1792,-19,154,0
0.01658625,-15516,-2444,-5500,-1776,-27,110,0
0.01658625,-15472,-2500,-5452,-1776,-79,206,0
0.01658917,-15448,-2556,-5620,-1760,-61,152,0
0.01658899,-15504,-2504,-5592,-1808,-66,234,0
0.01658649,-15352,-2492,-5648,-1760,-76,258,0
0.01658562,-15368,-2492,-5768,-1776,-28,135,0
0.01658922,-15420,-2500,-5512,-1776,-36,202,0
0.01658922,-15312,-2460,-5568,-1744,-104,258,0
0.0165871,-15396,-2524,-5568,-1744,-120,250,0
0.01658673,-15404,-2400,-5704,-1776,-153,244,0
0.01658877,-15400,-2536,-5604,-1776,-134,246,0
0.01658863,-15376,-2464,-5676,-1760,-45,212,0
0.01659004,-15368,-2556,-5708,-1760,-31,100,0
0.01659004,-15412,-2584,-5568,-1776,-63,133,0
0.01658772,-15356,-2504,-5688,-1776,-80,268,0
0.01658754,-15400,-2560,-5588,-1728,-80,106,0
0.0165875,-15488,-2468,-5524,-1792,-43,13,0
0.0165875,-15372,-2592,-5628,-1760,6,168,0
0.01658859,-15384,-2492,-5496,-1760,-65,282,0
0.01659058,-15228,-2548,-5584,-1776,-43,114,0
0.01658799,-15456,-2352,-5664,-1728,-66,123,0
0.01658532,-15396,-2500,-5624,-1776,-104,180,0
0.01658869,-15252,-2528,-5784,-1744,-106,258,0
0.01659049,-15328,-2596,-5836,-1776,-39,75,0
0.0165884,-15280,-2592,-5444,-1744,-59,172,0
0.01658402,-15528,-2680,-5708,-1728,-121,216,0
0.01658686,-15468,-2524,-5468,-1744,-130,278,0
0.01657461,-15296,-2360,-5540,-1728,-148,290,0
0.01657713,-15332,-2560,-5636,-1760,-123,248,0
0.01657713,-15372,-2540,-5568,-1760,-84,173,0
0.0165789,-15464,-2484,-5488,-1760,-88,227,0
0.0165789,-15308,-2480,-5652,-1744,-105,242,0
0.0165771,-15476,-2520,-5460,-1744,-51,111,0
0.01657537,-15492,-2552,-5716,-1760,-87,185,0
0.01657537,-15328,-2444,-5564,-1744,-51,181,0
0.01658657,-15348,-2464,-5504,-1792,-95,224,0
0.01657667,-15412,-2464,-5480,-1776,-18,104,0
0.0165753,-15408,-2576,-5584,-1776,-50,162,0
0.01657522,-15340,-2448,-5796,-1760,-52,231,0
0.01657698,-15376,-2440,-5928,-1792,-40,156,0
0.01657698,-15432,-2436,-5704,-1776,-86,146,0
0.01657942,-15424,-2540,-5648,-1744,-110,171,0
0.01657248,-15300,-2580,-5760,-1776,-135,235,0
0.01657248,-15448,-2484,-5728,-1824,-208,304,0
0.01657779,-15312,-2516,-5848,-1776,-130,368,0
0.01657779,-15412,-2440,-5880,-1760,-103,236,0
0.01657578,-15288,-2500,-5804,-1776,-21,206,0
0.0165751,-15332,-2520,-5628,-1760,-96,198,0
0.0165751,-15456,-2520,-5572,-1776,-61,185,0
0.01657967,-15424,-2560,-5648,-1760,-36,112,0
0.01657967,-15488,-2676,-5760,-1776,-116,129,0
0.01657767,-15252,-2432,-5676,-1792,-118,298,0
0.01657379,-15240,-2504,-5716,-1808,-63,165,0
0.01657644,-15296,-2472,-5680,-1760,-6,61,0
0.01657926,-15396,-2460,-5596,-1744,-66,148,0
0.01657926,-15372,-2588,-5848,-1760,-113,189,0
0.01657764,-15400,-2484,-5632,-1760,-92,200,0
0.016579,-15372,-2436,-5700,-1760,-82,178,0
0.016579,-15344,-2516,-5932,-1760,-134,188,0
0.01657603,-15444,-2540,-5796,-1760,-71,162,0
0.01657692,-15408,-2580,-5604,-1728,-154,261,0
0.01657692,-15320,-2576,-5752,-1744,-96,265,0
0.01657587,-15368,-2524,-5744,-1760,-31,105,0
0.01657524,-15392,-2584,-5680,-1760,-91,96,0
0.01657684,-15444,-2444,-5692,-1760,-68,181,0
0.01657684,-15420,-2512,-5912,-1760,-27,202,0
0.0165804,-15276,-2432,-5812,-1712,-52,205,0
0.01657583,-15300,-2512,-5600,-1776,-50,142,0
0.01657561,-15420,-2572,-5864,-1776,-80,235,0
0.01657561,-15420,-2412,-5920,-1760,-86,213,0
0.0164814,-15412,-2444,-5568,-1792,-61,98,0
0.01657849,-15352,-2532,-5592,-1744,-58,133,0
0.016576,-15360,-2536,-5740,-1792,-75,209,0
0.016576,-15280,-2408,-5656,-1760,-87,167,0
0.01657849,-15304,-2484,-5516,-1728,-45,107,0
0.01657707,-15368,-2524,-5736,-1728,-86,215,0
0.01657665,-15244,-2500,-5692,-1760,-64,152,0
0.01657696,-15396,-2492,-5564,-1776,-73,81,0
0.01657504,-15328,-2456,-5616,-1776,-46,143,0
0.01657703,-15400,-2536,-5840,-1760,-90,232,0
0.01657834,-15444,-2492,-5812,-1744,-75,196,0
0.01657552,-15324,-2516,-5896,-1760,-7,124,0
0.01657778,-15176,-2460,-5736,-1760,-71,173,0
0.016575,-15336,-2488,-5608,-1760,-79,212,0
0.016575,-15372,-2480,-5640,-1744,-71,148,0
0.01657644,-15372,-2476,-5640,-1744,-62,213,0
0.01657815,-15392,-2588,-5716,-1744,-92,177,0
0.01657684,-15364,-2504,-5732,-1760,-83,164,0
0.01657684,-15372,-2580,-5812,-1776,-103,16,0
0.01657308,-15400,-2560,-5564,-1776,-128,166,0
0.01657701,-15304,-2564,-5768,-1744,-72,132,0
0.01657701,-15216,-2484,-5688,-1744,-32,128,0
0.01657572,-15380,-2472,-5796,-1728,3,113,0
0.01657626,-15380,-2492,-5824,-1744,-130,231,0
0.01657659,-15340,-2484,-5672,-1744,-56,156,0
0.01657676,-15384,-2436,-5800,-1760,-20,103,0
0.01657685,-15360,-2528,-5672,-1744,-73,234,0
0.01657574,-15380,-2348,-5728,-1744,-58,218,0
0.01657707,-15304,-2400,-5716,-1728,-70,120,0
0.01657707,-15416,-2476,-5668,-1760,-64,161,0
0.01657638,-15372,-2536,-5724,-1712,-58,210,0
0.01657965,-15264,-2404,-5920,-1760,-76,89,0
0.01657476,-15248,-2504,-5680,-1760,-99,122,0
0.01657476,-15400,-2420,-5848,-1744,-21,166,0
0.01657376,-15352,-2520,-5552,-1760,-57,180,0
0.01657291,-15320,-2432,-5748,-1728,-70,170,0
0.01657616,-15376,-2464,-5808,-1728,-36,145,0
0.0165702,-15424,-2544,-5788,-1744,-102,238,0
0.0165702,-15384,-2432,-5716,-1776,-62,145,0
0.01657579,-15300,-2604,-5808,-1728,-84,125,0
0.01657859,-15388,-2372,-5612,-1744,-93,152,0
0.01657859,-15416,-2496,-5652,-1744,-76,188,0
0.0165771,-15376,-2484,-5684,-1760,-81,227,0
0.01657852,-15384,-2480,-5812,-1728,-38,153,0
0.01657523,-15324,-2428,-5660,-1760,-87,231,0
0.01657617,-15336,-2460,-5816,-1744,-106,205,0
0.01657617,-15324,-2512,-5668,-1776,-79,130,0
0.01657659,-15352,-2480,-5716,-1744,-101,199,0
0.01657872,-15328,-2480,-5508,-1760,-86,156,0
0.01657872,-15392,-2492,-5868,-1760,-90,127,0
0.01657561,-15400,-2456,-5712,-1760,-64,152,0
0.01657561,-15420,-2496,-5616,-1760,-111,257,0
0.01657653,-15300,-2460,-5788,-1760,-63,172,0
0.01657443,-15360,-2480,-5820,-1728,-70,137,0
0.01657443,-15276,-2500,-5752,-1760,-56,230,0
0.01657799,-15304,-2508,-5884,-1712,-62,217,0
0.01657577,-15356,-2368,-5772,-1728,-78,184,0
0.01657661,-15480,-2412,-5596,-1728,-101,164,0
0.01657747,-15428,-2492,-5756,-1728,-60,159,0
0.01657582,-15324,-2476,-5712,-1776,-48,134,0
0.01657656,-15352,-2508,-5636,-1760,-57,177,0
0.01657656,-15396,-2404,-5684,-1792,-64,134,0
0.01657594,-15356,-2460,-5668,-1776,-77,206,0
0.0165783,-15396,-2428,-5668,-1744,-61,128,0
0.01657766,-15288,-2468,-5628,-1744,-85,153,0
0.01657503,-15400,-2504,-5724,-1744,-84,142,0
0.01657564,-15396,-2524,-5728,-1744,-76,177,1
0.01657564,-15268,-2520,-5728,-1776,-66,185,1
0.01657731,-15332,-2512,-5700,-1744,-61,133,1
0.01657755,-15360,-2452,-5652,-1760,-112,188,1
0.0165791,-15396,-2528,-5592,-1792,-104,231,1
0.01657695,-15328,-2436,-5692,-1776,-71,194,1
0.01657695,-15344,-2520,-5688,-1728,-84,175,1
0.01657595,-15308,-2424,-5916,-1760,-74,178,1
0.01657545,-15336,-2460,-5700,-1760,-99,157,1
0.01648093,-15308,-2536,-5728,-1760,-97,172,1
0.01657944,-15492,-2528,-5532,-1744,-26,53,1
0.0165772,-15392,-2544,-5808,-1760,-75,163,1
0.01657454,-15348,-2464,-5760,-1712,-64,213,1
0.01657454,-15256,-2472,-5736,-1728,-76,169,1
0.0165774,-15484,-2512,-5788,-1792,-62,131,1
0.01657335,-15344,-2440,-5760,-1760,-38,183,1
0.01657903,-15396,-2460,-5764,-1776,-50,192,1
0.01657496,-15360,-2496,-5760,-1760,-67,133,1
0.01657739,-15356,-2488,-5768,-1744,-86,194,1
0.01657935,-15312,-2500,-5768,-1776,-102,129,1
0.01657816,-15336,-2460,-5796,-1728,-98,92,1
0.01657766,-15448,-2488,-5760,-1744,-52,58,1
0.01657385,-15588,-2448,-5852,-1728,-74,149,1
0.01657485,-15440,-2548,-5464,-1728,-123,267,1
0.01657528,-15248,-2500,-5624,-1760,-176,338,1
0.01657765,-15300,-2360,-5896,-1728,-116,159,1
0.01657756,-15400,-2492,-5592,-1760,-58,130,1
0.01657577,-15448,-2396,-5608,-1744,-113,241,1
0.01657682,-15280,-2428,-5688,-1744,-100,229,1
0.01657795,-15308,-2500,-5700,-1744,-62,185,1
0.01657795,-15384,-2484,-5620,-1776,-75,232,1
0.01657545,-15344,-2412,-5844,-1744,-130,205,1
0.0165787,-15388,-2452,-5760,-1776,-49,174,1
0.01635538,-15332,-2380,-5724,-1776,-53,239,1
0.0165744,-15308,-2376,-5948,-1744,-88,315,1
0.01657768,-15296,-2368,-5924,-1760,-72,190,1
0.01666051,-15392,-2400,-5860,-1760,-78,236,1
0.01666051,-15380,-2480,-5680,-1776,-85,262,1
0.01659183,-15312,-2472,-5760,-1728,-109,197,1
0.01659267,-15452,-2340,-5820,-1760,-85,119,1
0.01659267,-15324,-2492,-5784,-1760,-40,132,1
0.01659523,-15428,-2396,-5720,-1744,-71,240,1
0.01659262,-15272,-2476,-5680,-1728,-6,218,1
0.01659262,-15420,-2480,-5840,-1728,-30,302,1
0.0165949,-15448,-2352,-5800,-1776,-185,271,1
0.01659711,-15392,-2412,-6052,-1760,-43,249,1
0.01659223,-15416,-2400,-5716,-1744,-36,200,1
0.01659214,-15348,-2368,-5704,-1776,-91,253,1
0.01659464,-15252,-2412,-5912,-1728,-95,127,1
0.01659464,-15396,-2384,-5780,-1696,-196,-171,1
0.01659399,-15300,-2220,-5816,-1744,-167,133,1
0.01659356,-15392,-2388,-5992,-1760,-55,205,1
0.01659356,-15236,-2400,-5904,-1728,-39,276,1
0.01659503,-15308,-2380,-5700,-1760,-76,287,1
0.01605493,-15432,-2524,-5656,-1760,-95,145,1
0.01659258,-15420,-2412,-5736,-1744,-138,231,1
0.01659325,-15272,-2180,-5696,-1744,-83,170,1
0.01657811,-15316,-2280,-5952,-1712,-9,73,1
0.01657942,-15600,-2308,-5468,-1728,70,149,1
0.01657942,-15400,-2252,-5756,-1760,-185,458,1
0.01657858,-15256,-2420,-6088,-1776,-123,300,1
0.01657594,-15280,-2384,-5792,-1712,-87,-100,1
0.0165775,-15508,-2356,-5592,-1760,-107,105,1
0.01657931,-15304,-2096,-5844,-1744,-53,22,1
0.01657704,-15408,-2764,-5668,-1760,-199,-116,1
0.01657741,-15356,-2448,-5792,-1744,-139,142,1
0.01657503,-15516,-2268,-5820,-1744,-62,234,1
0.01657503,-15352,-2328,-5992,-1744,-50,233,1
0.01658057,-15400,-2180,-5860,-1744,80,234,1
0.01658057,-15324,-2256,-5676,-1776,-61,276,1
0.01657735,-15400,-2304,-5828,-1744,-44,324,1
0.0165759,-15448,-2272,-5696,-1760,-30,195,1
0.0165759,-15376,-2260,-5736,-1744,-120,192,1
0.01658046,-15232,-2108,-5844,-1776,-82,155,1
0.01657588,-15332,-2220,-5704,-1760,-29,60,1
0.01657999,-15456,-2176,-5680,-1728,-91,125,1
0.01658132,-15336,-2200,-5872,-1760,-103,269,1
0.01657698,-15396,-2192,-5820,-1744,-4,255,1
0.01657595,-15304,-2084,-5796,-1728,34,177,1
0.01657595,-15324,-2088,-5616,-1728,82,22,1
0.01657529,-15388,-2204,-5752,-1760,-96,112,1
0.01657769,-15388,-2252,-5644,-1728,22,233,1
0.01657769,-15388,-2228,-5680,-1776,-103,268,1
0.01657647,-15216,-2120,-5784,-1728,-94,230,1
0.01657647,-15368,-2236,-5800,-1760,-135,158,1
0.01657756,-15556,-2256,-5736,-1744,-203,411,1
0.01657068,-15292,-2272,-5712,-1744,-165,612,1
0.01657645,-15204,-2196,-5892,-1728,-83,501,1
0.0165772,-15208,-2136,-5980,-1744,2,323,1
0.0165772,-15256,-2324,-5780,-1776,-45,250,1
0.01658084,-15344,-2200,-5848,-1728,-27,278,1
0.01658084,-15408,-2268,-5964,-1760,-30,239,1
0.01657952,-15316,-2260,-5868,-1728,-48,326,1
0.01657997,-15240,-2196,-5896,-1744,-54,346,1
0.01657997,-15268,-2224,-5988,-1728,-84,317,1
0.01657928,-15280,-2096,-5804,-1728,-62,324,1
0.01658187,-15212,-2116,-5964,-1792,-44,116,1
0.01658187,-15428,-2284,-5840,-1760,-77,249,1
0.01658104,-15420,-2368,-6024,-1728,16,339,1
0.01658083,-15280,-2252,-6032,-1712,4,257,1
0.01658083,-15372,-2124,-5928,-1712,-36,302,1
0.01657811,-15284,-2352,-6020,-1760,-72,323,1
0.01658095,-15256,-2076,-6052,-1760,-146,124,1
0.01657776,-15368,-2144,-5868,-1744,-91,0,1
0.01657842,-15432,-2272,-5768,-1728,-54,267,1
0.01657842,-15080,-2112,-6324,-1728,-101,423,1
0.0165778,-15152,-2096,-6116,-1728,3,87,1
0.01657474,-15372,-2328,-5880,-1728,-72,239,1
0.01657474,-15324,-2252,-6120,-1712,-87,256,1
0.01657836,-15240,-2264,-5928,-1760,-149,191,1
0.01657832,-15440,-2296,-6192,-1744,-90,172,1
0.01657795,-15328,-2136,-6100,-1728,-82,312,1
0.01657795,-15324,-2372,-6164,-1728,-64,421,1
0.01657551,-15460,-2128,-5948,-1728,-36,326,1
0.01657768,-15280,-2176,-6116,-1728,-110,365,1
0.01657768,-15352,-2200,-6284,-1744,-141,412,1
0.01657925,-15244,-2220,-6248,-1744,-38,335,1
0.01657991,-15288,-2076,-6276,-1744,-64,367,1
0.0165777,-15232,-2196,-6096,-1712,-112,419,1
0.0165777,-15260,-2200,-6044,-1712,-81,192,1
0.01657899,-15228,-2216,-6172,-1744,-59,233,1
0.0165777,-15128,-2216,-6100,-1744,-64,209,1
0.0165777,-15172,-2168,-6096,-1728,-51,210,1
0.01657623,-15340,-2196,-6172,-1728,-73,118,1
0.01657439,-15340,-2400,-6192,-1744,1,234,1
0.01657773,-15204,-2140,-6144,-1712,-29,256,1
0.01657773,-15232,-2068,-6300,-1728,-37,280,1
0.01657901,-15348,-2532,-6228,-1728,4,257,1
0.01657829,-15360,-2252,-6148,-1744,-127,329,1
0.016577,-15140,-2056,-6124,-1760,-254,413,1
0.01657877,-15208,-2112,-6176,-1728,-177,135,1
0.01657835,-15272,-2064,-6216,-1728,-61,238,1
0.01657775,-15232,-2216,-6000,-1728,-71,275,1
0.01657547,-15192,-2092,-6308,-1744,-17,281,1
0.01657633,-15180,-2104,-6104,-1744,-10,79,1
0.01657904,-15288,-2156,-5996,-1728,-33,204,1
0.01657548,-15224,-2260,-6264,-1712,-89,231,1
0.01657548,-15220,-2240,-6284,-1760,3,162,1
0.01657814,-15204,-2136,-6136,-1760,-46,202,1
0.01657429,-15180,-2212,-6240,-1712,-82,148,1
0.01658104,-15140,-2092,-6188,-1728,-86,80,1
0.01657595,-15364,-2192,-6148,-1744,-34,252,1
0.01657802,-15272,-2140,-6184,-1728,-56,295,1
0.01657802,-15068,-2272,-6252,-1728,-122,194,1
0.01209546,-15132,-2140,-6056,-1712,-100,-20,1
0.01657588,-15232,-2140,-6164,-1696,1,-72,1
0.0165793,-15388,-2180,-6148,-1744,-63,230,1
0.01657856,-15204,-2144,-6212,-1760,-67,260,1
0.01657856,-15108,-2192,-6312,-1712,-38,130,1
0.03315465,-15156,-2196,-6124,-1712,-20,167,1
0.01657638,-15176,-2244,-6116,-1760,-58,170,1
0.0165772,-15164,-2164,-6268,-1744,-118,70,1
0.01657942,-15412,-2204,-6172,-1728,-54,-28,1
0.01658025,-15356,-2308,-6052,-1696,-175,217,1
0.01657966,-15188,-2168,-6168,-1728,-227,277,1
0.01657952,-14992,-2112,-6184,-1728,-110,164,1
0.01657952,-15188,-2108,-6060,-1728,-38,8,1
0.01658057,-15304,-2244,-6264,-1744,-26,109,1
0.01658057,-15104,-2404,-6448,-1744,-65,153,1
0.0165791,-15272,-2288,-6288,-1760,2,209,1
0.0165791,-15200,-2088,-6048,-1728,8,300,1
0.01658242,-15184,-2092,-6292,-1760,-76,411,1
0.0165774,-15136,-2124,-6284,-1728,37,110,1
0.0165774,-15268,-2112,-6172,-1744,-31,116,1
0.01657681,-15252,-2160,-6292,-1728,-29,222,1
0.01658381,-15164,-2092,-6320,-1728,-85,194,1
0.01658381,-15136,-2160,-6152,-1728,-119,116,1
0.01657745,-15296,-2180,-6052,-1696,-95,160,1
0.01657918,-15196,-2116,-6388,-1744,-67,193,1
0.01658114,-15180,-2104,-6184,-1728,-35,188,1
0.01657787,-15192,-2132,-6216,-1744,-37,163,1
0.01657946,-15200,-2256,-6200,-1728,-69,215,1
0.01657685,-15180,-2204,-6084,-1712,-70,86,1
0.01657727,-15380,-2108,-6060,-1760,-71,141,1
0.01657727,-15284,-2184,-6048,-1760,-63,171,1
0.01656657,-15304,-2100,-6364,-1760,-6,118,1
0.01659826,-15156,-2124,-6280,-1744,-50,201,1
0.01657221,-15268,-2220,-6140,-1712,-78,103,1
0.01657694,-15240,-2200,-6104,-1728,-91,182,1
0.01657742,-15356,-2268,-6460,-1760,-16,-51,1
0.01657628,-15344,-2308,-5956,-1744,-6,225,1
0.01657918,-15324,-2112,-6328,-1728,-100,368,1
0.01657607,-15228,-2224,-6200,-1760,-26,195,1
0.01658197,-15244,-2228,-6124,-1744,-64,156,1
0.01657795,-15144,-2176,-6184,-1760,-21,100,1
0.01657869,-15376,-2136,-6172,-1792,-101,97,1
0.01658088,-15240,-2116,-6132,-1728,-85,187,1
0.01657537,-15172,-2236,-6188,-1728,-13,223,1
0.01658532,-15188,-2208,-6256,-1712,-139,242,1
0.01657945,-15196,-2208,-6212,-1728,4,12,1
0.01657411,-15264,-2236,-6076,-1744,-79,121,1
0.01658023,-15312,-2200,-6084,-1728,-109,254,1
0.01657825,-15176,-2124,-6280,-1728,-101,167,1
0.01657657,-15284,-2124,-6124,-1696,-23,47,1
0.01657657,-15392,-2056,-6064,-1728,-9,172,1
0.01657774,-15132,-2164,-6036,-1712,-51,187,1
0.01657774,-15292,-2164,-6276,-1744,-34,164,1
0.01657789,-15236,-2244,-6164,-1728,-82,220,1
0.01658016,-15240,-2248,-5992,-1744,-71,133,1
0.01657791,-15252,-2208,-6220,-1728,-30,23,1
0.01657964,-15300,-2100,-5992,-1696,-181,112,1
0.01657964,-15180,-2104,-6204,-1744,-159,71,1
0.01657894,-15276,-2124,-6252,-1728,-75,5,1
0.01657829,-15452,-2244,-5940,-1744,26,100,1
0.01657829,-15312,-2148,-6116,-1744,-43,203,1
0.01657837,-15152,-2244,-6032,-1728,36,250,1
0.01657837,-15208,-2280,-6184,-1728,16,108,1
0.01657766,-15164,-2168,-6136,-1728,-24,134,1
0.01657796,-15176,-2220,-6264,-1728,-44,86,1
0.01657939,-15388,-2220,-5848,-1728,-162,253,1
0.01657939,-15172,-2080,-6272,-1744,-180,368,1
0.01657448,-15120,-2060,-6348,-1728,8,31,1
0.01658016,-15428,-2268,-5880,-1776,-46,55,1
0.01657844,-15340,-2240,-6200,-1728,-147,333,1
0.01657957,-15108,-2312,-6364,-1728,-124,115,1
0.01657957,-15244,-2256,-6292,-1696,-35,23,1
0.0165776,-15388,-2240,-6020,-1728,-56,236,1
0.01657772,-15092,-2240,-6212,-1744,-183,305,1
0.01657772,-15140,-2200,-6152,-1728,33,49,1
0.01657716,-15340,-2232,-5996,-1696,-60,41,1
0.01657552,-15200,-2200,-6240,-1712,-88,282,1
0.01657894,-15196,-2168,-6320,-1712,-94,270,1
0.0165789,-15288,-2184,-6216,-1728,-53,115,1
0.01658023,-15340,-2300,-6156,-1744,-81,99,1
0.01657723,-15248,-2272,-6172,-1744,-201,129,1
0.01657723,-15216,-2216,-6224,-1728,-198,210,1
0.01657819,-15268,-2136,-6040,-1712,-48,247,1
0.01657936,-15244,-2208,-6040,-1712,23,181,1
0.01657936,-15228,-2252,-6172,-1728,-20,104,1
0.01657906,-15364,-2304,-6264,-1744,-39,175,1
0.01657421,-15148,-2192,-6068,-1728,-101,155,1
0.01657539,-15184,-2240,-6252,-1760,-103,154,1
0.0165758,-15180,-2248,-6216,-1728,-93,58,1
0.01658151,-15396,-2276,-5888,-1712,-74,199,1
0.01657731,-15164,-2036,-6096,-1712,-33,225,1
0.01657728,-15296,-2228,-6328,-1744,10,112,1
0.0165773,-15240,-2196,-6196,-1712,-37,197,1
0.0165773,-15312,-2324,-5928,-1680,-119,300,1
0.01657909,-15204,-2248,-6456,-1728,-87,-5,1
0.01657791,-15312,-2176,-5908,-1712,-41,59,1
0.01657791,-15164,-2264,-6168,-1728,-171,273,1
0.01657379,-15096,-2244,-6240,-1712,-4,161,0
0.01658381,-15272,-2304,-6164,-1696,-6,47,0
0.01658381,-15252,-2280,-6096,-1696,-103,221,0
0.06631263,-15236,-2280,-6264,-1744,-134,219,0
0.01657721,-15204,-2144,-6288,-1728,-65,97,0
0.01657835,-15276,-2188,-6072,-1744,24,67,0
0.01657835,-15328,-2308,-6144,-1728,-91,293,0
0.01657645,-15208,-2136,-6236,-1744,-43,186,0
0.01657808,-15316,-2220,-6312,-1744,-33,42,0
0.01657808,-15300,-2304,-6280,-1712,-32,127,0
0.01657712,-15240,-2272,-6052,-1728,-87,206,0
0.01630317,-15216,-2164,-6224,-1744,-65,233,0
0.03343175,-15192,-2224,-6032,-1728,-47,165,0
0.01657688,-15268,-2156,-5992,-1728,-35,148,0
0.01657473,-15288,-2160,-6196,-1712,-118,165,0
0.03315875,-15256,-2296,-6156,-1696,-48,142,0
0.01658332,-15200,-2260,-6292,-1744,-5,126,0
0.0165772,-15280,-2176,-6216,-1712,-10,236,0
0.01657797,-15244,-2296,-5944,-1760,-88,121,0
0.01657727,-15196,-2156,-6096,-1728,-138,150,0
0.01657727,-15288,-2176,-6176,-1728,-97,139,0
0.01658055,-15288,-2268,-6176,-1696,-32,98,0
0.01657749,-15240,-2312,-5880,-1776,-109,189,0
0.01658135,-15224,-2196,-6044,-1712,-128,247,0
0.01658135,-15164,-2236,-6220,-1728,-109,134,0
0.01657879,-15180,-2308,-6292,-1712,-92,166,0
0.01657956,-15180,-2264,-6044,-1728,-86,150,0
0.01657852,-15216,-2180,-6228,-1728,-134,149,0
0.01656286,-15400,-2140,-6188,-1696,77,124,0
0.01656286,-15320,-2416,-6000,-1728,-167,474,0
0.01657911,-15044,-2188,-6352,-1712,-150,321,0
0.01657714,-15260,-2212,-6136,-1680,-37,-71,0
0.01657714,-15276,-2288,-6344,-1696,-59,169,0
0.01657663,-15288,-2296,-6312,-1744,-87,203,0
0.03315737,-15192,-2220,-6176,-1744,-59,155,0
0.01657607,-15276,-2236,-6280,-1728,-50,64,0
0.01657651,-15444,-2288,-5896,-1728,-92,276,0
0.01657592,-15236,-2192,-6472,-1680,-117,223,0
0.01657451,-15196,-2244,-6072,-1712,-14,109,0
0.0165759,-15352,-2260,-6064,-1696,-100,190,0
0.0165759,-15256,-2164,-6292,-1744,-44,198,0
0.04973118,-15236,-2180,-6208,-1728,23,148,0
0.08288264,-15236,-2176,-6136,-1728,-53,221,0
0.08288264,-15352,-2316,-6204,-1696,-116,216,0
0.03315164,-15180,-2128,-6116,-1664,-173,152,0
0.01658053,-15152,-2232,-6120,-1696,-109,104,0
0.01657304,-15228,-2120,-6204,-1760,-33,32,0
0.01657304,-15228,-2200,-6036,-1712,54,-70,0
0.01657621,-15376,-2200,-5936,-1728,-73,129,0
0.01686058,-15232,-2184,-6180,-1712,-48,137,0
0.0163106,-15276,-2116,-6240,-1696,-109,71,0
0.0163106,-15204,-2256,-6272,-1712,-127,6,0
0.01658351,-15232,-2180,-5992,-1728,-77,34,0
0.01657424,-15236,-2240,-6176,-1728,-38,110,0
0.01657424,-15332,-2308,-5980,-1680,-40,156,0
0.01657524,-15168,-2300,-6116,-1744,-87,111,0
0.01657867,-15196,-2272,-6096,-1712,-130,161,0
0.01657596,-15328,-2180,-6132,-1696,-134,111,0
0.01657335,-15212,-2252,-6124,-1744,-12,-26,0
0.01658917,-15220,-2312,-5876,-1744,-112,174,0
0.01658036,-15108,-2172,-6116,-1680,-131,196,0
0.01658036,-15328,-2248,-6184,-1712,-64,98,0
0.01657436,-15264,-2284,-6096,-1728,-81,116,0
0.01657553,-15288,-2268,-5996,-1712,-110,128,0
0.01657612,-15188,-2220,-6036,-1728,-64,116,0
0.01657612,-15280,-2340,-5892,-1712,-65,-40,0
0.01658003,-15328,-2164,-5980,-1712,-133,123,0
0.01657896,-15108,-2256,-6044,-1728,-183,126,0
0.01657868,-15268,-2224,-6144,-1696,-57,30,0
0.01657633,-15332,-2224,-5832,-1728,-98,105,0
0.01657545,-15256,-2264,-6064,-1696,-81,95,0
0.01657721,-15252,-2252,-6164,-1696,-87,134,0
0.01657674,-15268,-2268,-6128,-1712,-59,130,0
0.01657674,-15356,-2308,-6172,-1744,-24,89,0
0.01657868,-15276,-2224,-6028,-1728,-79,126,0
0.01657923,-15216,-2240,-5964,-1712,-110,172,0
0.01657475,-15192,-2276,-6032,-1744,-85,106,0
0.01657765,-15372,-2412,-5860,-1728,-74,72,0
0.01657475,-15300,-2312,-6200,-1728,-59,147,0
0.01657286,-15340,-2364,-5984,-1712,-110,108,0
0.01657286,-15404,-2336,-5944,-1712,-76,158,0
0.01657639,-15172,-2260,-5952,-1728,-156,114,0
0.01656441,-15340,-2260,-5908,-1712,-176,81,0
0.01657906,-15212,-2108,-5936,-1712,-170,76,0
0.01657906,-15284,-2212,-6016,-1696,-156,96,0
0.01658072,-15484,-2160,-6172,-1696,-98,130,0
0.01657693,-15316,-2276,-6024,-1728,-92,126,0
0.01657741,-15360,-2236,-5908,-1712,-114,121,0
0.01657741,-15252,-2364,-5840,-1712,-87,162,0
0.01657891,-15292,-2264,-6116,-1696,-90,114,0
0.01658222,-15272,-2384,-5760,-1728,-92,195,0
0.01658222,-15272,-2148,-6232,-1728,-173,155,0
0.01657564,-15424,-2352,-5828,-1712,-124,67,0
0.01658061,-15244,-2212,-6016,-1696,-160,78,0
0.01658061,-15280,-2296,-5928,-1712,-143,-39,0
0.01657944,-15368,-2348,-6092,-1696,-199,-144,0
0.01657812,-15348,-2148,-5812,-1696,-122,23,0
0.01657969,-15216,-2256,-5864,-1728,-150,233,0
0.01658032,-15196,-2252,-6096,-1696,-112,148,0
0.01657955,-15352,-2336,-5932,-1712,-23,79,0
0.0165796,-15284,-2252,-5784,-1744,-73,149,0
0.01658074,-15324,-2228,-5920,-1728,-130,194,0
0.01658198,-15216,-2292,-6032,-1744,-119,139,0
0.01657851,-15276,-2208,-6024,-1696,-49,0,0
0.01657868,-15392,-2284,-5796,-1712,-86,-58,0
0.01663952,-15316,-2356,-5872,-1728,-56,76,0
0.01657883,-15328,-2220,-6032,-1728,-97,-16,0
0.01657754,-15368,-2260,-5924,-1712,-152,147,0
0.01658001,-15228,-2196,-5912,-1712,-54,-52,0
0.01657907,-15212,-2316,-5888,-1712,-111,47,0
0.01658127,-15352,-2232,-6000,-1712,-89,-47,0
0.01658127,-15412,-2372,-5672,-1728,-118,56,0
0.01657853,-15336,-2344,-5960,-1712,-25,-174,0
0.01657464,-15328,-2196,-5844,-1712,-47,-104,0
0.01657464,-15324,-2252,-5740,-1728,5,36,0
0.01628826,-15372,-2328,-5680,-1728,-33,180,0
0.01658018,-15464,-2324,-5636,-1728,-40,143,0
0.01658148,-15440,-2300,-5680,-1712,-81,206,0
0.01657908,-15308,-2348,-5800,-1728,-85,87,0
0.01658078,-15424,-2284,-5848,-1744,-94,124,0
0.0165808,-15440,-2304,-5692,-1712,-64,156,0
0.01658113,-15340,-2316,-5696,-1696,-46,206,0
0.01658078,-15268,-2328,-5676,-1728,-49,242,0
0.01658078,-15336,-2380,-5748,-1696,-81,257,0
0.01657941,-15188,-2344,-5752,-1728,23,118,0
0.01657765,-15420,-2340,-5832,-1712,-39,89,0
0.01657765,-15356,-2420,-5860,-1728,-38,126,0
0.01657843,-15340,-2320,-5900,-1728,-46,85,0
0.01658007,-15312,-2152,-5864,-1696,-76,-148,0
0.01658139,-15496,-2496,-5512,-1696,226,-15,0
0.01658139,-15428,-2216,-5572,-1696,-91,167,0
0.01658222,-15204,-2384,-5784,-1696,-168,195,0
0.01658442,-15276,-2208,-5804,-1696,-99,-20,0
0.01658442,-15340,-2340,-5816,-1712,-108,67,0
0.01658244,-15280,-2376,-5720,-1696,-126,160,0
0.01658258,-15340,-2332,-5680,-1712,-128,344,0
0.01658251,-15316,-2428,-5708,-1712,-122,340,0
0.01658251,-15384,-2372,-5608,-1696,-48,190,0
0.01658372,-15316,-2380,-5784,-1728,-80,123,0
0.01658427,-15352,-2272,-5804,-1712,-31,212,0
0.01658408,-15316,-2420,-5824,-1696,2,-61,0
0.01658326,-15408,-2416,-5708,-1712,-52,55,0
0.01658432,-15396,-2352,-5700,-1712,-86,225,0
0.01657931,-15304,-2308,-5764,-1696,-83,176,0
0.01659217,-15316,-2292,-5920,-1712,-44,162,0
0.01658339,-15360,-2332,-5884,-1712,-80,198,0
0.01658148,-15476,-2308,-5844,-1728,-70,179,0
0.01658457,-15292,-2336,-5808,-1712,-86,182,0
0.01658507,-15304,-2392,-5644,-1696,-70,144,0
0.01658507,-15420,-2408,-5684,-1712,-41,126,0
0.0165824,-15424,-2400,-5648,-1680,-57,189,0
0.01658235,-15364,-2344,-5768,-1712,-47,162,0
0.01658235,-15316,-2160,-5664,-1680,-75,254,0
0.01658202,-15364,-2372,-5628,-1744,-21,156,0
0.01658436,-15356,-2304,-5584,-1712,-77,177,0
0.01658623,-15304,-2380,-5920,-1696,-89,209,0
0.01658354,-15352,-2324,-5872,-1728,-70,87,0
0.01658354,-15488,-2408,-5572,-1712,-74,202,0
0.01657949,-15408,-2400,-5640,-1728,-95,197,0
0.01658425,-15464,-2420,-5728,-1744,-72,245,0
0.01658716,-15396,-2292,-5664,-1696,-102,224,0
0.01658523,-15328,-2352,-5768,-1696,-76,177,0
0.01658278,-15332,-2348,-5636,-1744,-36,90,0
0.01658238,-15460,-2304,-5836,-1712,-54,223,0
0.01658238,-15312,-2400,-5620,-1696,-86,150,0
0.01658441,-15448,-2408,-5856,-1728,-96,167,0
0.01677407,-15312,-2400,-5644,-1680,-67,124,0
0.01677407,-15388,-2376,-5868,-1712,-32,179,0
0.01658391,-15416,-2320,-5676,-1728,-66,226,0
0.01658465,-15392,-2372,-5636,-1712,-55,180,0
0.01658634,-15496,-2504,-5768,-1712,-54,159,0
0.01657904,-15408,-2424,-5612,-1696,-67,169,0
0.01658472,-15340,-2404,-5696,-1696,-81,267,0
0.01658439,-15292,-2272,-5880,-1696,-80,135,0
0.01658516,-15404,-2328,-5744,-1728,-76,76,0
0.01658516,-15368,-2440,-5604,-1696,-67,179,0
0.01658662,-15268,-2480,-5796,-1696,-78,183,0
0.0165798,-15364,-2408,-5948,-1696,-86,173,0
0.0165856,-15316,-2372,-5908,-1680,-101,253,0
0.0165826,-15384,-2304,-5744,-1680,-91,197,0
0.0165826,-15252,-2332,-5572,-1680,-59,120,0
0.0165841,-15404,-2344,-5828,-1712,-59,117,0
0.01658594,-15272,-2316,-5644,-1712,-32,215,0
0.01658594,-15364,-2320,-5700,-1744,-77,200,0
0.01658717,-15296,-2416,-5928,-1696,-77,120,0
0.01611085,-15376,-2552,-5596,-1728,-60,163,0
0.01705775,-15316,-2408,-5656,-1712,-92,190,0
0.01658385,-15404,-2368,-5812,-1728,-84,216,0
0.01658222,-15168,-2304,-5732,-1680,-36,135,0
0.01658585,-15388,-2484,-5724,-1696,-100,127,0
0.01658585,-15360,-2460,-5852,-1712,-98,202,0
0.01658189,-15420,-2440,-5728,-1696,-60,219,0
0.04975293,-15348,-2300,-5664,-1728,-59,191,0
0.04923352,-15248,-2336,-5772,-1664,-90,148,0
0.04923352,-15300,-2352,-5668,-1696,-71,159,0
0.04974078,-15304,-2308,-5628,-1680,-80,181,0
0.01659503,-15392,-2392,-5764,-1712,-63,94,0
0.01659503,-15356,-2276,-5696,-1696,-115,227,0
0.04971547,-15420,-2408,-5784,-1696,-63,152,0
0.01657623,-15336,-2428,-5560,-1712,-92,220,0
0.01657565,-15332,-2268,-5784,-1712,-89,246,0
0.01658209,-15372,-2368,-5800,-1712,-47,132,0
0.01658155,-15340,-2368,-5688,-1712,-59,157,0
0.01657774,-15388,-2368,-5796,-1696,-108,246,0
0.01658098,-15228,-2384,-5736,-1712,-104,195,0
0.03315811,-15428,-2348,-5744,-1696,-45,98,0
0.01656797,-15376,-2372,-5700,-1728,-111,185,0
0.01657641,-15280,-2436,-5680,-1696,-113,193,0
0.01657859,-15352,-2456,-5644,-1712,-107,166,0
0.01657926,-15416,-2300,-5864,-1696,-95,211,0
0.01657235,-15280,-2340,-5704,-1728,-44,114,0
0.01657864,-15408,-2464,-5720,-1712,-99,185,0
0.01658274,-15300,-2404,-5852,-1696,-67,199,0
0.01657802,-15352,-2376,-5748,-1728,-103,155,0
0.01658019,-15384,-2372,-5768,-1712,-62,159,1
0.0165788,-15296,-2308,-5800,-1680,-81,204,1
0.01657927,-15364,-2352,-5824,-1728,-66,170,1
0.01658166,-15360,-2368,-5764,-1680,-63,163,1
0.01657928,-15340,-2368,-5912,-1728,-53,106,1
0.01657982,-15368,-2468,-5612,-1696,-64,239,1
0.01657869,-15296,-2372,-5836,-1712,-117,226,1
0.016578,-15420,-2452,-5720,-1712,-76,183,1
0.01657864,-15420,-2260,-5740,-1680,-69,170,1
0.01657822,-15288,-2476,-5860,-1728,-102,208,1
0.01657822,-15340,-2368,-5884,-1744,-91,172,1
0.01657683,-15412,-2300,-5800,-1696,-74,180,1
0.01658172,-15288,-2420,-5700,-1712,-52,185,1
0.0165797,-15364,-2348,-5904,-1680,-93,161,1
0.0165797,-15416,-2280,-5980,-1712,-64,115,1
0.01657891,-15300,-2344,-5848,-1712,-65,203,1
0.01658232,-15220,-2396,-5940,-1696,-81,243,1
0.01657652,-15508,-2348,-5808,-1696,-52,73,1
0.01657848,-15360,-2352,-5788,-1696,-54,172,1
0.01657837,-15380,-2456,-5892,-1680,-88,239,1
0.01657837,-15272,-2368,-5912,-1680,-58,159,1
0.01657818,-15476,-2364,-5728,-1696,-91,141,1
0.0165794,-15292,-2392,-5720,-1744,-99,125,1
0.01657974,-15324,-2348,-5916,-1696,-39,111,1
0.01657742,-15384,-2360,-5716,-1712,-68,87,1
0.01657594,-15380,-2344,-5924,-1696,-90,97,1
0.01657594,-15380,-2280,-5720,-1696,-63,136,1
0.01657948,-15548,-2396,-5816,-1696,-136,164,1
0.01657832,-15376,-2300,-5928,-1712,-159,218,1
0.01657832,-15396,-2408,-5744,-1696,-53,172,1
0.01657884,-15272,-2332,-5720,-1712,-31,103,1
0.01657887,-15400,-2392,-5892,-1696,-53,122,1
0.01657797,-15428,-2356,-5816,-1728,-99,177,1
0.01658092,-15420,-2352,-5852,-1696,-73,205,1
0.01657994,-15372,-2364,-5872,-1696,-75,171,1
0.01657831,-15316,-2388,-5728,-1680,-37,190,1
0.01657831,-15412,-2420,-5920,-1712,-96,162,1
0.01657821,-15412,-2376,-5840,-1712,-22,219,1
0.01348401,-15340,-2372,-5796,-1728,-64,256,1
0.01657867,-15340,-2240,-5736,-1712,-100,301,1
0.01657867,-15328,-2276,-5820,-1696,-48,171,1
0.01657914,-15444,-2340,-5736,-1696,-85,163,1
0.01657914,-15356,-2296,-5704,-1696,-87,240,1
0.01657736,-15396,-2304,-5916,-1696,-90,195,1
0.0165787,-15384,-2312,-5700,-1712,-75,155,1
0.01657936,-15316,-2240,-5792,-1680,-83,245,1
0.01657767,-15348,-2360,-5824,-1696,-60,236,1
0.01662159,-15380,-2320,-5868,-1664,-14,239,1
0.01657584,-15396,-2368,-5948,-1712,8,189,1
0.01657567,-15320,-2364,-5756,-1696,-37,229,1
0.0165778,-15320,-2308,-5876,-1680,-62,225,1
0.0165778,-15280,-2348,-5860,-1712,-35,169,1
0.01658022,-15444,-2296,-5708,-1680,-72,164,1
0.01657813,-15416,-2272,-5744,-1728,-61,201,1
0.0165807,-15336,-2360,-5868,-1696,-82,175,1
0.01657829,-15396,-2344,-5892,-1712,-92,198,1
0.01658,-15256,-2320,-5864,-1696,-102,225,1
0.0331566,-15228,-2344,-5872,-1664,-33,162,1
0.03315754,-15392,-2324,-5932,-1696,-84,187,1
0.03315754,-15348,-2212,-5852,-1712,-86,217,1
0.01656865,-15328,-2348,-5812,-1680,-62,260,1
0.01658265,-15348,-2224,-5928,-1712,-36,206,1
0.01658265,-15304,-2212,-5960,-1728,53,402,1
0.01657735,-15500,-2280,-5892,-1696,186,184,1
0.01658051,-15456,-2288,-5784,-1664,29,162,1
0.01657822,-15320,-2248,-5852,-1696,-75,393,1
0.01657697,-15236,-2244,-6032,-1728,-74,102,1
0.01657876,-15328,-2292,-5812,-1680,-61,144,1
0.01657241,-15420,-2416,-5872,-1664,-80,235,1
0.01657241,-15424,-2288,-5820,-1712,-134,193,1
0.01657933,-15392,-2252,-5876,-1696,-104,175,1
0.01658008,-15296,-2280,-5912,-1696,-200,346,1
0.01657929,-15232,-2180,-5852,-1680,-105,208,1
0.01657929,-15420,-2304,-5804,-1696,-76,122,1
0.01657398,-15256,-2156,-5988,-1712,-36,170,1
0.01657898,-15432,-2428,-6004,-1696,-95,266,1
0.01658018,-15240,-2344,-5896,-1696,-90,292,1
0.01657905,-15392,-2284,-5840,-1696,-74,299,1
0.01658355,-15276,-2216,-5852,-1664,-77,275,1
0.01657895,-15348,-2304,-5836,-1664,-65,243,1
0.01657915,-15288,-2196,-5872,-1680,-113,240,1
0.01658051,-15188,-2240,-6004,-1696,-165,129,1
0.01657693,-15396,-2228,-5924,-1696,-78,66,1
0.01657761,-15264,-2272,-6076,-1680,-68,382,1
0.01658051,-15320,-2272,-5820,-1696,-113,331,1
0.01657999,-15228,-2172,-5960,-1696,-82,287,1
0.01657947,-15412,-2200,-5984,-1696,-91,165,1
0.01657914,-15460,-2460,-5868,-1680,-175,98,1
0.01658027,-15268,-2296,-5860,-1728,55,345,1
0.01657804,-15148,-2212,-6080,-1728,-64,383,1
0.01614822,-15260,-2112,-5964,-1680,-10,269,1
0.01657961,-15376,-2240,-5968,-1728,-5,270,1
0.01657961,-15344,-2180,-5932,-1712,-77,345,1
0.01662213,-15400,-2184,-6120,-1696,-86,206,1
0.03316213,-15488,-2272,-5956,-1696,-74,395,1
0.01657844,-15308,-2236,-6088,-1712,-242,511,1
0.01657967,-15220,-2016,-5776,-1680,-93,250,1
0.01657572,-15296,-2076,-5928,-1712,-80,481,1
0.01657572,-15156,-2312,-5960,-1728,-87,260,1
0.01657934,-15184,-2184,-6080,-1712,-98,155,1
0.01657358,-15280,-2176,-5976,-1696,-63,106,1
0.01658073,-15340,-2168,-5892,-1680,-47,169,1
0.016578,-15368,-2048,-6048,-1664,-39,226,1
0.01657711,-15336,-2208,-6144,-1696,-46,207,1
0.01657897,-15240,-2240,-6000,-1696,-38,219,1
0.0165932,-15224,-2192,-5848,-1712,-58,261,1
0.01658053,-15268,-2216,-6124,-1712,-63,216,1
0.01657991,-15252,-2164,-6024,-1696,-77,126,1
0.01657847,-15392,-2092,-6124,-1680,-62,194,1
0.01658276,-15376,-2176,-6132,-1696,-94,227,1
0.01657708,-15412,-2076,-6140,-1696,13,271,1
0.01658361,-15304,-2196,-5872,-1680,-84,343,1
0.01658038,-15192,-2216,-6272,-1696,-82,210,1
0.01658038,-15296,-2216,-6076,-1712,-60,86,1
0.01657991,-15380,-2228,-6196,-1696,-69,166,1
0.01657923,-15336,-2220,-5848,-1696,-62,219,1
0.01658053,-15248,-2224,-6116,-1696,-47,332,1
0.01657983,-15072,-2124,-6220,-1696,-88,243,1
0.01657917,-15140,-2176,-5876,-1680,-70,228,1
0.01657917,-15300,-2128,-6264,-1680,-113,207,1
0.01658019,-15316,-2188,-6268,-1664,-39,202,1
0.01658036,-15304,-2288,-6096,-1664,-90,290,1
0.01657788,-15076,-2240,-6200,-1664,-48,248,1
0.01658205,-15208,-2108,-6100,-1664,-7,85,1
0.01658121,-15336,-2256,-6060,-1696,-74,237,1
0.01658121,-15196,-2056,-6112,-1680,-142,210,1
0.01658637,-15240,-2044,-5960,-1664,-23,52,1
0.01657896,-15376,-2208,-6168,-1696,-67,268,1
0.01657891,-15196,-2124,-6176,-1680,-82,207,1
0.01657914,-15088,-2064,-6088,-1680,-54,167,1
0.01657832,-15236,-2088,-6140,-1696,-62,97,1
0.0165794,-15212,-2136,-6032,-1680,-80,211,1
0.01658003,-15256,-2188,-6256,-1696,-39,22,1
0.01658003,-15464,-2164,-5908,-1680,-35,265,1
0.01658005,-15084,-2136,-6028,-1680,-166,291,1
0.01657934,-15052,-2064,-6268,-1712,-111,78,1
0.01657934,-15284,-2312,-6248,-1696,-80,1,1
0.01657729,-15352,-2148,-6184,-1712,-57,270,1
0.01657897,-15236,-2172,-6168,-1680,-54,250,1
0.01657682,-15156,-2140,-6020,-1712,-61,200,1
0.01657682,-15196,-2176,-6084,-1680,2,57,1
0.01658112,-15288,-2200,-6156,-1664,-152,255,1
0.03315761,-15232,-2140,-6184,-1680,-35,191,1
0.01657877,-15312,-2204,-6100,-1680,-34,103,1
0.01657882,-15168,-2232,-6152,-1696,-119,251,1
0.01657991,-15148,-2168,-6264,-1696,-95,191,1
0.01658333,-15192,-2196,-6184,-1664,-51,136,1
0.01621102,-15304,-2204,-6140,-1728,-63,114,1
0.01621102,-15088,-2084,-6196,-1696,-89,181,1
0.01657853,-15068,-2076,-6340,-1680,-69,156,1
0.01658177,-15340,-2148,-6188,-1664,-6,33,1
0.01658022,-15396,-2172,-6160,-1680,-72,237,1
0.01658022,-15096,-2060,-6216,-1712,-148,257,1
0.01657509,-15160,-2192,-6288,-1680,-35,-27,1
0.01657509,-15328,-2180,-6088,-1680,-77,132,1
0.01657161,-15228,-2108,-6148,-1696,-28,243,1
0.0165725,-15140,-2192,-6260,-1680,-115,165,1
0.0165725,-15372,-2120,-6064,-1696,44,70,1
0.01657126,-15368,-2216,-5956,-1712,-91,279,1
0.01657192,-15188,-2132,-6128,-1664,-124,298,1
0.01657192,-15136,-2204,-6116,-1680,-44,78,1
0.01657096,-15372,-2160,-6216,-1664,-12,151,1
0.01657096,-15444,-2240,-6160,-1680,-46,269,1
0.0165792,-15116,-2176,-6116,-1712,-90,229,1
0.01657061,-15280,-2244,-6128,-1696,-56,114,1
0.01656832,-15324,-2240,-6048,-1696,-86,214,1
0.01657048,-15196,-2036,-6272,-1664,-59,150,1
0.01657273,-15316,-2136,-6144,-1664,-21,169,1
0.01657273,-15284,-2208,-6296,-1664,-53,224,1
0.01657216,-15228,-2216,-6204,-1696,-84,269,1
0.01657006,-15124,-2220,-6120,-1664,-59,230,1
0.01657006,-15252,-2200,-6204,-1696,-77,179,1
0.04971671,-15220,-2192,-6016,-1712,-100,182,1
0.01656275,-15372,-2080,-6296,-1680,-109,196,1
0.01657398,-15200,-2200,-6196,-1664,-45,128,1
0.01657398,-15300,-2244,-6120,-1696,2,199,1
0.08285832,-15228,-2288,-6044,-1680,-40,186,1
0.03314573,-15316,-2220,-6096,-1696,-86,137,1
0.03314573,-15232,-2204,-6180,-1696,-24,113,1
0.01657302,-15192,-2248,-6224,-1680,-29,125,1
0.0162361,-15276,-2232,-5976,-1696,-106,314,1
0.03347693,-15172,-2196,-6280,-1712,-65,167,1
0.01657383,-15356,-2232,-6220,-1664,-40,96,1
0.0165668,-15296,-2112,-6236,-1696,-66,175,1
0.01629167,-15268,-2180,-6260,-1696,-30,111,1
0.0334268,-15276,-2224,-6076,-1696,-83,199,1
0.01657238,-15080,-2200,-6084,-1680,-83,218,1
0.01657246,-15284,-2152,-6192,-1664,-45,-2,1
0.01657389,-15256,-2220,-5900,-1696,-23,264,1
0.01657158,-15244,-2120,-6200,-1664,-169,332,1
0.01657337,-15172,-2252,-6352,-1696,-51,189,1
0.01657113,-15376,-2316,-6056,-1712,-36,156,1
0.01657865,-15324,-2284,-6112,-1712,-79,324,1
0.01657271,-15164,-2244,-6068,-1728,-120,182,1
0.0164818,-15284,-2264,-6276,-1696,-70,131,1
0.01657292,-15260,-2204,-6088,-1696,-47,202,1
0.01657434,-15228,-2164,-6104,-1664,-96,277,1
0.01657307,-15144,-2184,-6212,-1680,-37,78,1
0.01657196,-15228,-2256,-6164,-1664,-48,56,1
0.01656958,-15292,-2188,-6084,-1664,-85,174,1
0.01657199,-15216,-2232,-6152,-1664,-77,212,1
0.01657199,-15144,-2056,-6268,-1696,-60,194,1
0.01657395,-15188,-2220,-6136,-1680,-58,185,1
0.01657313,-15248,-2236,-6140,-1680,-58,123,1
0.01657313,-15180,-2260,-6192,-1696,-51,121,1
0.01656862,-15200,-2152,-6128,-1696,-59,193,1
0.01657555,-15268,-2196,-6204,-1664,-112,166,1
0.01657286,-15220,-2172,-6108,-1664,-57,144,1
0.01657154,-15376,-2228,-6236,-1712,-96,158,1
0.01657154,-15224,-2228,-6080,-1696,-91,134,1
0.01657325,-15260,-2208,-6144,-1664,-48,127,1
0.01656672,-15308,-2240,-6248,-1680,-13,136,1
0.01657324,-15308,-2300,-6224,-1680,-84,306,1
0.01657324,-15160,-2208,-6156,-1680,-65,125,1
0.01657438,-15152,-2188,-6080,-1680,-68,160,1
0.01656943,-15260,-2144,-6076,-1696,-98,222,1
0.01657351,-15204,-2080,-6252,-1680,-67,63,1
0.03314292,-15356,-2216,-6172,-1696,29,153,1
0.0662771,-15272,-2188,-6060,-1696,-180,323,1
0.0662771,-15096,-2144,-6236,-1664,-106,201,1
0.03353479,-15244,-2200,-6352,-1696,-7,60,0
0.01692897,-15324,-2272,-6044,-1680,-57,216,0
0.03311136,-15172,-2184,-6184,-1664,-148,224,0
0.03311136,-15156,-2224,-6288,-1712,-82,174,0
0.06628171,-15312,-2140,-6384,-1680,-73,173,0
0.03314105,-15204,-2228,-6036,-1680,-35,268,0
0.03314105,-15208,-2276,-6300,-1696,-56,125,0
0.04905248,-15316,-2268,-6080,-1696,-60,53,0
0.03379678,-15252,-2252,-6144,-1680,-90,178,0
0.03379678,-15308,-2300,-6368,-1664,-56,220,0
0.0828559,-15140,-2044,-6136,-1712,-49,187,0
0.0828559,-15232,-2372,-6116,-1712,-2,135,0
0.0828559,-15376,-2184,-6068,-1696,-59,181,0
0.04971186,-15148,-2228,-6248,-1696,-102,153,0
0.03314254,-15264,-2192,-6176,-1696,-37,47,0
0.06627937,-15268,-2332,-6144,-1696,-88,248,0
0.06627937,-15124,-2160,-6160,-1664,-111,233,0
0.04970772,-15264,-2208,-6080,-1680,-59,68,0
0.03314092,-15348,-2280,-6116,-1696,-66,98,0
0.03314092,-15112,-2164,-6192,-1664,-99,178,0
0.01657113,-15196,-2184,-6232,-1664,-112,245,0
0.04971014,-15276,-2124,-6064,-1664,-76,113,0
0.03313907,-15208,-2208,-6256,-1664,-87,154,0
0.03313907,-15284,-2172,-6056,-1664,-47,107,0
0.01657168,-15184,-2204,-6276,-1664,-73,182,0
0.01656923,-15048,-2284,-6192,-1664,-112,186,0
0.01657073,-15232,-2168,-6332,-1696,-89,-6,0
0.01657073,-15392,-2280,-5960,-1680,-63,130,0
0.04977714,-15188,-2140,-6032,-1696,-194,274,0
0.01658486,-15140,-2128,-6520,-1696,-118,172,0
0.01658369,-15220,-2232,-6244,-1680,-47,30,0
0.01658369,-15328,-2228,-6072,-1680,-88,178,0
0.0331696,-15152,-2284,-6160,-1712,-141,124,0
0.03316481,-15132,-2260,-6016,-1696,-125,121,0
0.01658583,-15344,-2144,-6044,-1664,-38,107,0
0.01658122,-15192,-2216,-6064,-1696,-8,184,0
0.01658311,-15328,-2244,-6252,-1664,-8,64,0
0.01658569,-15220,-2228,-6056,-1648,-68,132,0
0.0165826,-15288,-2340,-6180,-1664,-116,140,0
0.0165831,-15276,-2356,-6144,-1664,-44,112,0
0.01658223,-15304,-2260,-6060,-1664,-54,135,0
0.01657805,-15264,-2232,-5968,-1680,-99,227,0
0.01658382,-15272,-2228,-6120,-1680,-77,72,0
0.01658382,-15260,-2188,-6144,-1648,-75,60,0
0.03316775,-15292,-2240,-6120,-1680,-82,118,0
0.01658503,-15272,-2292,-6048,-1680,-64,160,0
0.01657833,-15232,-2320,-6256,-1696,-85,105,0
0.01658656,-15196,-2240,-6172,-1696,-61,98,0
0.01658389,-15176,-2248,-6144,-1696,-65,77,0
0.01658912,-15252,-2292,-6136,-1696,-55,167,0
0.01658912,-15280,-2196,-6228,-1680,-65,130,0
0.04974787,-15152,-2216,-6116,-1664,-66,103,0
0.01658292,-15376,-2308,-6048,-1680,-96,93,0
0.01658292,-15084,-2348,-6012,-1680,-132,77,0
0.01658506,-15212,-2304,-6056,-1648,-99,72,0
0.01658284,-15404,-2320,-6172,-1680,-52,65,0
0.01658473,-15132,-2356,-6116,-1680,-113,114,0
0.01657893,-15200,-2280,-6300,-1712,-63,2,0
0.0165847,-15360,-2392,-5964,-1696,-53,84,0
0.01658393,-15248,-2256,-6144,-1696,-192,266,0
0.01658488,-15056,-2280,-6316,-1664,-129,122,0
0.01658488,-15204,-2368,-6076,-1664,-114,-44,0
0.01658192,-15372,-2312,-5956,-1680,-85,73,0
0.01658125,-15208,-2200,-5948,-1664,-141,110,0
0.01658125,-15276,-2284,-6080,-1680,-102,-8,0
0.016582,-15396,-2340,-5992,-1680,-39,-46,0
0.01658461,-15264,-2348,-5856,-1648,-159,106,0
0.01658785,-15332,-2304,-5984,-1680,-104,62,0
0.01658644,-15372,-2292,-6112,-1632,-51,-55,0
0.01658644,-15280,-2372,-5912,-1696,-78,54,0
0.01658606,-15152,-2488,-6024,-1648,-56,80,0
0.01658523,-15396,-2184,-5988,-1680,-70,51,0
0.01658523,-15460,-2300,-6032,-1664,-120,125,0
0.01658623,-15232,-2340,-5764,-1696,-131,115,0
0.01658555,-15224,-2208,-6168,-1664,-94,191,0
0.01658561,-15224,-2280,-5904,-1696,-97,56,0
0.01658275,-15328,-2364,-5940,-1680,-62,86,0
0.01658275,-15396,-2392,-5956,-1680,-72,171,0
0.01658519,-15320,-2324,-5916,-1712,-115,179,0
0.01658259,-15208,-2304,-6080,-1664,-113,58,0
0.01658473,-15260,-2332,-6060,-1648,-67,19,0
0.01658702,-15368,-2360,-6000,-1712,-49,53,0
0.01658777,-15344,-2388,-5908,-1664,-90,173,0
0.0165828,-15288,-2264,-6040,-1696,-127,43,0
0.0165844,-15356,-2244,-5780,-1664,-132,121,0
0.01658252,-15308,-2352,-5908,-1648,-119,49,0
0.01658407,-15340,-2128,-6048,-1680,-88,130,0
0.01692201,-15248,-2328,-5908,-1648,-121,125,0
0.01692201,-15260,-2272,-5884,-1696,-119,26,0
0.01658536,-15372,-2288,-5888,-1680,-144,55,0
0.01658355,-15296,-2304,-5856,-1664,-122,83,0
0.01658863,-15312,-2328,-5892,-1680,-80,-38,0
0.01658863,-15320,-2244,-5872,-1696,-129,82,0
0.01632456,-15344,-2220,-5928,-1648,-102,-32,0
0.01658359,-15456,-2268,-6024,-1712,-81,81,0
0.01658326,-15392,-2248,-5936,-1680,-95,190,0
0.01658641,-15348,-2404,-5736,-1664,-95,197,0
0.01658733,-15196,-2364,-5768,-1680,-94,28,0
0.01658533,-15376,-2328,-5848,-1664,-88,34,0
0.01658533,-15308,-2268,-5940,-1712,-169,125,0
0.01658177,-15300,-2296,-5824,-1648,-124,110,0
0.01658445,-15308,-2112,-5908,-1680,-104,176,0
0.01658696,-15244,-2428,-5900,-1664,-43,46,0
0.01658591,-15380,-2268,-5808,-1664,-84,131,0
0.01658472,-15284,-2236,-5972,-1696,-104,87,0
0.01658338,-15268,-2236,-5732,-1696,-98,104,0
0.01658484,-15364,-2244,-5868,-1680,-111,81,0
0.01658479,-15192,-2392,-5976,-1680,-153,141,0
0.01658709,-15352,-2316,-5852,-1696,-96,48,0
0.01658347,-15368,-2332,-5716,-1696,-111,100,0
0.0165855,-15476,-2372,-5776,-1696,-115,124,0
0.01658449,-15252,-2252,-5800,-1664,-102,132,0
0.01658449,-15336,-2284,-5892,-1648,-101,116,0
0.01599001,-15308,-2264,-5784,-1680,-82,125,0
0.01658513,-15468,-2336,-5696,-1680,-81,73,0
0.01658513,-15340,-2212,-5868,-1632,-78,94,0
0.01658223,-15408,-2308,-5880,-1664,-74,116,0
0.01658012,-15388,-2232,-5876,-1648,-95,121,0
0.0165886,-15356,-2216,-5832,-1664,-154,204,0
0.0165886,-15168,-2320,-5752,-1664,-72,231,0
0.01658475,-15316,-2336,-5728,-1696,-31,90,0
0.0165849,-15424,-2392,-5820,-1680,-74,121,0
0.01658343,-15448,-2304,-5716,-1712,-86,162,0
0.01658341,-15432,-2360,-5832,-1648,-92,152,0
0.01628722,-15372,-2308,-5788,-1696,-70,125,0
0.01687956,-15452,-2352,-5708,-1664,-80,170,0
0.01658302,-15340,-2360,-5816,-1648,-96,187,0
0.01658461,-15416,-2424,-5720,-1696,-119,228,0
0.01658476,-15244,-2216,-5756,-1664,-94,140,0
0.016583,-15380,-2360,-5728,-1664,-62,108,0
0.016583,-15352,-2248,-5824,-1664,-73,174,0
0.01658605,-15468,-2344,-5828,-1680,-76,256,0
0.01657857,-15332,-2284,-5752,-1648,-63,144,0
0.01657857,-15276,-2240,-5856,-1680,-74,120,0
0.01648227,-15396,-2324,-5816,-1648,-100,173,0
0.01648227,-15220,-2432,-5656,-1648,-140,216,0
0.01658198,-15288,-2300,-5780,-1696,-139,275,0
0.01658498,-15372,-2224,-5864,-1648,-172,67,0
0.01658498,-15332,-2312,-5816,-1680,-107,220,0
0.01686,-15316,-2268,-5848,-1680,-91,132,0
0.0156687,-15372,-2264,-5820,-1648,-67,159,0
0.0156687,-15312,-2328,-5688,-1680,-59,166,0
0.01658141,-15384,-2332,-5780,-1664,-88,155,0
0.01658374,-15268,-2316,-5636,-1680,-81,129,0
0.01658225,-15320,-2324,-5768,-1664,-104,140,0
0.04974892,-15352,-2224,-6012,-1664,-75,139,0
0.01658488,-15284,-2376,-5612,-1680,-70,116,0
0.01658475,-15332,-2408,-5832,-1664,-73,129,0
0.01658475,-15368,-2404,-5848,-1680,-105,246,0
0.01658105,-15244,-2328,-5892,-1648,-32,116,0
0.01658675,-15340,-2396,-5664,-1680,-73,108,0
0.01658675,-15364,-2308,-5872,-1680,-98,180,0
0.01657981,-15364,-2292,-5760,-1664,-74,290,0
0.01658537,-15384,-2188,-5696,-1696,-58,151,0
0.0165839,-15412,-2360,-5780,-1664,-90,139,0
0.01658279,-15380,-2320,-5868,-1680,-67,144,0
0.01658366,-15388,-2264,-5784,-1632,-91,114,0
0.01658495,-15312,-2348,-5960,-1680,-103,174,0
0.01658293,-15320,-2320,-5784,-1728,-62,141,0
0.01658293,-15352,-2208,-5816,-1648,-69,142,0
0.01658371,-15392,-2432,-5820,-1664,-52,154,0
0.01658171,-15448,-2272,-5784,-1664,-98,178,0
0.01658171,-15336,-2336,-5956,-1648,-78,130,0
0.01658201,-15304,-2284,-5816,-1632,-82,218,0
0.01658327,-15336,-2384,-5800,-1712,-72,210,0
0.01658364,-15328,-2384,-5740,-1648,-41,196,0
0.01658242,-15280,-2332,-5820,-1664,-46,71,0
0.01658497,-15308,-2404,-5940,-1680,-53,146,0
0.01658285,-15440,-2340,-5696,-1696,-57,152,0
0.01658285,-15288,-2248,-5816,-1696,-89,194,0
0.01658274,-15408,-2292,-5740,-1664,-60,165,0
0.01658335,-15380,-2384,-5676,-1664,-88,167,0
0.01658668,-15372,-2332,-5676,-1680,-92,119,0
0.01658668,-15324,-2336,-5768,-1696,-83,142,0
0.01658261,-15408,-2320,-5800,-1664,-88,153,0
0.01658491,-15396,-2368,-5860,-1664,-86,116,0
0.0165836,-15356,-2308,-5688,-1648,-58,219,0
0.0165836,-15384,-2284,-5848,-1648,-50,131,0
0.01658377,-15404,-2364,-5752,-1648,-89,155,0
0.03317118,-15356,-2208,-5888,-1664,-56,168,0
0.01658039,-15332,-2416,-5736,-1664,-86,190,0
0.01658372,-15452,-2348,-5900,-1680,-107,204,0
0.01670258,-15396,-2228,-5900,-1664,-84,233,0
0.01658723,-15364,-2316,-5800,-1664,-115,249,0
0.01658323,-15284,-2360,-5964,-1664,-52,134,0
0.01658378,-15488,-2268,-5792,-1664,-66,138,0
0.01658049,-15392,-2360,-5604,-1664,-104,195,0
0.0165843,-15316,-2292,-5808,-1664,-49,57,0
0.0165843,-15336,-2328,-5768,-1648,-105,115,0
0.01658236,-15424,-2428,-5812,-1664,-72,189,0
0.0165835,-15348,-2300,-5796,-1664,-87,198,0
0.0165835,-15296,-2208,-5848,-1680,-79,158,0
0.016583,-15484,-2388,-5736,-1664,-73,151,1
0.01658383,-15476,-2296,-5692,-1648,-58,147,1
0.01658522,-15372,-2340,-5864,-1680,-93,162,1
0.01658119,-15384,-2340,-5828,-1648,-91,174,1
0.01658908,-15384,-2388,-5712,-1664,-69,114,1
0.0165841,-15388,-2320,-5856,-1680,-66,190,1
0.01658271,-15288,-2368,-5788,-1664,-61,91,1
0.01658422,-15360,-2352,-5780,-1664,-81,99,1
0.01658422,-15316,-2252,-5684,-1664,-66,134,1
0.01658452,-15364,-2328,-5720,-1680,-80,-36,1
0.016585,-15428,-2200,-5788,-1664,-96,147,1
0.016585,-15324,-2388,-5812,-1648,-83,214,1
0.01658343,-15320,-2368,-5832,-1680,-39,262,1
0.01612982,-15316,-2320,-5864,-1664,-62,159,1
0.0165862,-15284,-2284,-5720,-1664,-80,192,1
0.0165862,-15412,-2264,-5812,-1648,-52,147,1
0.01657079,-15376,-2268,-5680,-1648,-72,200,1
0.01657725,-15376,-2328,-5884,-1664,-82,210,1
0.01658051,-15376,-2336,-5804,-1680,-58,202,1
0.01658051,-15372,-2384,-5772,-1664,-107,238,1
0.01657764,-15364,-2360,-5836,-1680,-68,189,0
0.03315726,-15308,-2328,-5952,-1616,-73,129,0
0.01657999,-15308,-2308,-5848,-1664,-97,190,0
0.01658138,-15400,-2400,-5804,-1680,-68,185,0
0.01658138,-15380,-2368,-5840,-1664,-107,179,0
0.01658665,-15340,-2360,-5760,-1680,-92,137,0
0.01657472,-15364,-2268,-5852,-1680,-66,185,0
0.01657727,-15380,-2312,-5684,-1648,-29,194,0
0.01657664,-15284,-2360,-5680,-1680,-85,178,0
0.01658056,-15360,-2372,-5860,-1648,-75,131,0
0.01658056,-15372,-2236,-5696,-1664,-75,225,0
0.01658536,-15380,-2388,-5780,-1648,-75,206,0
0.01657863,-15264,-2256,-5920,-1664,-94,198,0
0.01657719,-15376,-2292,-5728,-1680,-52,189,0
0.01657719,-15456,-2360,-5892,-1648,-57,256,0
0.01657935,-15344,-2388,-5832,-1664,-103,199,0
0.0165766,-15340,-2228,-5888,-1664,-40,185,0
0.0165773,-15324,-2308,-5788,-1632,-99,222,0
0.0165773,-15296,-2236,-5888,-1648,-81,205,0
0.01657532,-15484,-2312,-6000,-1680,-83,227,0
0.0165807,-15336,-2208,-5788,-1664,-45,259,0
0.01657826,-15308,-2228,-5732,-1680,-13,179,0
0.01657826,-15356,-2196,-5812,-1648,-89,347,0
0.01658026,-15364,-2280,-5896,-1648,-29,181,0
0.01657867,-15300,-2248,-5776,-1648,-74,229,0
0.01657575,-15296,-2224,-5884,-1648,-90,234,0
0.01658032,-15320,-2196,-5704,-1664,-64,156,0
0.01657836,-15448,-2340,-5972,-1664,-8,210,0
0.01657862,-15324,-2192,-5696,-1696,-67,275,0
0.01657862,-15196,-2228,-5928,-1648,-115,259,0
0.01657841,-15304,-2352,-6028,-1664,-69,74,0
0.01657866,-15464,-2336,-5972,-1680,-84,214,0
0.01657358,-15468,-2240,-5732,-1680,-69,255,0
0.01658453,-15360,-2300,-5916,-1696,-105,245,0
0.0497332,-15400,-2208,-5724,-1648,-69,210,0
0.0497332,-15324,-2276,-6056,-1680,-80,241,0
0.01657965,-15348,-2340,-5848,-1680,-53,257,0
0.01657965,-15456,-2196,-5816,-1632,-48,278,0
0.0165772,-15284,-2244,-5908,-1664,-59,295,0
0.03315554,-15300,-2348,-5932,-1664,-35,202,0
0.01657787,-15360,-2288,-5980,-1648,26,271,0
0.01657787,-15400,-2256,-5880,-1632,-28,351,0
0.01657899,-15360,-2248,-5860,-1680,-63,315,0
0.01657899,-15276,-2184,-5992,-1664,-57,190,0
0.01658023,-15352,-2240,-5764,-1680,-73,180,0
0.01657766,-15344,-2168,-5792,-1648,-135,289,0
0.01657833,-15296,-2204,-5972,-1648,-81,269,0
0.01658493,-15368,-2348,-6156,-1648,-2,144,0
0.01636634,-15320,-2312,-5788,-1680,-71,325,0
0.01680858,-15212,-2328,-5996,-1648,-49,275,0
0.01658812,-15136,-2316,-5888,-1664,-58,224,0
0.01659332,-15312,-2160,-5980,-1664,-68,269,0
0.01659332,-15368,-2288,-5980,-1648,-66,247,0
0.01658713,-15380,-2236,-5996,-1664,-22,199,0
0.01658786,-15288,-2252,-5912,-1680,-107,317,0
0.01658786,-15204,-2136,-6212,-1648,-91,325,0
0.01658665,-15372,-2180,-6028,-1648,-119,295,0
0.01658377,-15372,-2192,-5856,-1664,-127,249,0
0.01658377,-15340,-2272,-6048,-1648,-96,302,0
0.01658787,-15168,-2260,-6052,-1648,-79,213,0
0.01658785,-15300,-2192,-5960,-1664,-55,286,0
0.01658959,-15364,-2248,-5960,-1648,-94,411,0
0.01658959,-15256,-2192,-6004,-1632,-59,341,0
0.01658942,-15244,-2216,-6060,-1648,-17,164,0
0.01658394,-15252,-2300,-6084,-1632,-61,212,0
0.01658657,-15284,-2208,-6016,-1664,-56,240,0
0.01658657,-15240,-2304,-5744,-1664,-90,286,0
0.01658558,-15296,-2172,-6012,-1632,-107,277,0
0.01658807,-15244,-2268,-5920,-1664,-67,108,0
0.01658718,-15444,-2312,-6032,-1648,-137,233,0
0.01658658,-15244,-2184,-6188,-1616,-85,316,0
0.01658627,-15228,-2260,-6192,-1680,-99,256,0
0.01658627,-15220,-2268,-6084,-1648,-91,247,0
0.01658606,-15216,-2328,-6220,-1648,-27,266,0
0.01658951,-15280,-2240,-6156,-1664,-49,330,0
0.01658951,-15356,-2252,-6184,-1648,28,310,0
0.01658898,-15316,-2100,-6156,-1648,-43,205,0
0.01658917,-15360,-2164,-6064,-1648,-46,383,0
0.01658802,-15172,-2136,-6212,-1664,-151,436,0
0.01651889,-15096,-2164,-6244,-1616,-99,265,0
0.01657141,-15240,-2292,-6288,-1664,-63,132,0
0.01657141,-15216,-2188,-5924,-1664,-70,149,0
0.01657236,-15308,-2144,-6048,-1680,-38,163,0
0.01657313,-15252,-2156,-6168,-1648,-117,348,0
0.01657391,-15164,-2180,-6344,-1664,-48,281,0
0.01657284,-15188,-2304,-6284,-1664,-56,285,0
0.01656928,-15204,-2288,-6268,-1664,-112,339,0
0.01657223,-15156,-2116,-6236,-1648,-41,113,0
0.01657571,-15192,-2192,-6108,-1648,-49,150,0
0.01657571,-15272,-2192,-6320,-1664,-86,144,0
0.01657247,-15328,-2024,-6184,-1648,-26,254,0
0.01657288,-15248,-2116,-6136,-1680,-58,270,0
0.01657447,-15208,-2148,-6272,-1648,-40,142,0
0.01657447,-15168,-2224,-6176,-1680,-39,214,0
0.01657582,-15124,-2168,-6128,-1648,-154,176,0
0.01656933,-15088,-2184,-6092,-1632,-136,141,0
0.01656933,-15232,-2208,-6236,-1632,18,40,0
0.01657713,-15308,-2128,-6260,-1648,15,152,0
0.01657224,-15172,-2172,-6120,-1648,-77,255,0
0.01657224,-15364,-2168,-6396,-1664,-60,15,0
0.01657305,-15408,-2232,-6100,-1648,-97,327,0
0.01657315,-15092,-2196,-6224,-1664,-108,213,0
0.016574,-15144,-2196,-6156,-1664,-90,218,0
0.016574,-15188,-2200,-6316,-1680,-47,131,0
0.01657011,-15340,-2284,-6148,-1632,-66,211,0
0.01657317,-15304,-2176,-6336,-1648,-105,263,0
0.01657103,-15148,-2180,-6152,-1632,-58,228,0
0.01657103,-15232,-2120,-6112,-1664,-39,212,0
0.01657359,-15260,-2248,-6192,-1664,-61,244,0
0.0165725,-15148,-2104,-6208,-1712,-48,213,0
0.01657354,-15224,-2220,-6280,-1680,-69,289,0
0.01657101,-15184,-2180,-6268,-1632,-84,392,0
0.01656889,-15004,-2224,-6368,-1680,-56,219,0
0.01695328,-15392,-2172,-6216,-1616,1,159,0
0.01658283,-15276,-2248,-6228,-1664,-46,201,0
0.03298269,-15152,-2180,-5964,-1664,-125,329,0
0.01676211,-15340,-2144,-6012,-1648,-29,186,0
0.01658878,-15192,-2196,-6092,-1680,-70,172,0
0.01658878,-15048,-2300,-6316,-1680,-89,228,0
0.01658228,-15116,-2092,-6404,-1664,-75,148,0
0.01658464,-15180,-2280,-6304,-1664,-43,43,0
0.01657988,-15300,-2200,-6124,-1648,-18,148,0
0.01657879,-15212,-2180,-6336,-1616,-72,192,0
0.01657879,-15268,-2200,-6436,-1696,-16,219,0
0.01658264,-15300,-2148,-6100,-1616,-91,308,0
0.01658274,-15016,-2136,-6308,-1632,-116,312,0
0.01658274,-15104,-2248,-6296,-1664,-48,37,0
0.01658273,-15260,-2268,-6308,-1632,-37,180,0
0.01658213,-15268,-2236,-6188,-1632,-53,232,0
0.01658213,-15160,-2196,-6332,-1648,-51,237,0
0.01658062,-15208,-2116,-6372,-1648,6,134,0
0.01658406,-15300,-2144,-6276,-1632,-63,252,0
0.01658363,-15136,-2160,-6360,-1632,-77,225,0
0.01658017,-15224,-2216,-6356,-1648,-34,151,0
0.01658191,-15244,-2256,-6164,-1648,-91,260,0
0.01658343,-15180,-2116,-6552,-1632,-53,129,0
0.01658296,-15272,-2084,-6284,-1632,-20,68,0
0.01658296,-15324,-2240,-6284,-1632,-40,182,0
0.01657971,-15220,-2220,-6264,-1632,-48,236,0
0.01658159,-15160,-2076,-6276,-1648,-84,135,0
0.01658159,-15128,-2172,-6236,-1616,-59,-16,0
0.01657438,-15264,-2212,-6216,-1664,-12,60,0
0.01658005,-15216,-2220,-6500,-1616,-94,205,0
0.0165724,-15144,-2072,-6396,-1632,-13,117,0
0.0165724,-15240,-2236,-6232,-1680,-92,139,0
0.01658138,-15276,-2220,-6256,-1600,-106,291,0
0.04973801,-15124,-2232,-6224,-1616,-84,148,0
0.04973801,-15188,-2124,-6192,-1616,-69,157,0
0.0331715,-15212,-2204,-6192,-1648,-80,212,0
0.01658435,-15264,-2212,-6384,-1648,-24,89,0
0.01658317,-15352,-2152,-6176,-1648,12,179,0
0.01658394,-15344,-2152,-6192,-1648,-75,320,0
0.01658302,-15148,-2168,-6440,-1648,-131,298,0
0.01658154,-15180,-2152,-6120,-1664,-94,91,0
0.01658169,-15244,-2140,-6156,-1696,-91,107,0
0.01658169,-15284,-2192,-6348,-1648,-64,70,0
0.01658465,-15248,-2252,-6488,-1664,-79,228,0
0.01658465,-15136,-2016,-6496,-1664,16,60,0
0.01658364,-15196,-2208,-6140,-1664,-31,209,0
0.0165822,-15168,-2168,-6496,-1664,-108,296,0
0.01658406,-15088,-2128,-6304,-1680,-104,8,0
0.01658385,-15300,-2300,-6128,-1664,-88,-27,0
0.01658385,-15248,-2176,-6184,-1648,-31,91,0
0.01658043,-15228,-2040,-6184,-1616,-72,213,0
0.01658043,-15184,-2172,-6332,-1632,-46,167,0
0.01658188,-15156,-2192,-6200,-1680,-56,79,0
0.01658168,-15136,-2108,-6200,-1664,-115,95,0
0.01658366,-15292,-2028,-6216,-1664,-116,71,0
0.01658343,-15260,-1956,-6244,-1632,-62,108,0
0.0331648,-15304,-2088,-6116,-1616,-35,288,0
0.0331648,-15408,-2056,-6460,-1648,-22,218,1
0.04974419,-15244,-2080,-6268,-1648,-5,97,1
0.01658157,-15224,-2124,-6156,-1632,-6,211,1
0.01658005,-15232,-2148,-6200,-1664,-63,278,1
0.0165804,-15096,-2072,-6476,-1648,-53,235,1
0.01658658,-15128,-2120,-6172,-1664,-55,48,1
0.01636474,-15204,-2048,-6268,-1664,-36,55,1
0.01658166,-15536,-2260,-6352,-1648,15,162,1
0.01658259,-15300,-2156,-6092,-1632,-126,287,1
0.01657945,-15096,-1980,-6372,-1664,-117,291,1
0.01657749,-15100,-2128,-6360,-1648,-50,153,1
0.01657749,-15272,-2096,-6204,-1680,-47,173,1
0.01659174,-15212,-2180,-6264,-1664,-119,222,1
0.01657529,-15204,-2040,-6396,-1616,-54,54,1
0.01657529,-15268,-2260,-6420,-1664,-44,61,1
0.01657287,-15300,-2120,-6028,-1664,-124,311,1
0.01657191,-15036,-2132,-6332,-1648,-68,161,1
0.01657377,-15280,-2060,-6164,-1680,-6,87,1
0.01657658,-15256,-2084,-6248,-1632,-74,189,1
0.01657658,-15220,-2140,-6368,-1664,-67,172,1
0.01656977,-15124,-2088,-6516,-1648,-16,38,1
0.01657445,-15364,-2124,-6128,-1632,-34,101,1
0.03314791,-15284,-2248,-6244,-1648,-132,235,1
0.03315035,-15040,-2144,-6272,-1648,-151,189,1
0.01657392,-15160,-2096,-6336,-1648,-89,40,1
0.01657471,-15292,-2112,-6176,-1648,-26,108,1
0.01657544,-15240,-2084,-6208,-1616,-160,297,1
0.01657204,-15152,-2024,-6204,-1664,-109,100,1
0.01657326,-15316,-2248,-6340,-1664,-108,64,1
0.01657326,-15376,-2120,-6384,-1664,-89,159,1
0.01657539,-15300,-2052,-6196,-1632,-150,272,1
0.01657539,-15196,-2108,-6236,-1632,-141,200,1
0.01657175,-15232,-2184,-6420,-1664,-96,58,1
0.01657175,-15248,-2176,-6268,-1648,-43,74,1
0.01657475,-15192,-2156,-6312,-1648,-140,345,1
0.01657475,-15064,-2052,-6356,-1632,-149,158,1
0.01657448,-15424,-2180,-6272,-1648,17,56,1
0.01657712,-15196,-2220,-6060,-1616,-188,252,1
0.01657769,-15132,-2116,-6292,-1616,-249,278,1
0.01657453,-15036,-2192,-6444,-1664,-126,23,1
0.01657453,-15236,-2096,-6220,-1648,-22,-96,1
0.01657624,-15316,-2100,-6228,-1648,-84,121,1
0.01657624,-15200,-2092,-6376,-1648,-117,81,1
0.01657153,-15176,-2188,-6392,-1664,-134,162,1
0.01657153,-15192,-2076,-6232,-1632,-93,130,1
0.01772855,-15140,-2116,-6184,-1616,-128,44,1
0.01657343,-15180,-2112,-6292,-1632,-94,29,1
0.01657613,-15176,-2212,-6132,-1680,-111,69,1
0.01657582,-15148,-2116,-6144,-1648,-132,70,1
0.01657025,-15256,-2144,-6348,-1664,-56,52,1
0.01657843,-15352,-2176,-6208,-1648,-30,75,1
0.01657315,-15176,-2196,-6244,-1648,-53,239,1
0.01657864,-15088,-2292,-6140,-1648,-111,224,1
0.01657057,-15180,-2244,-6004,-1616,-140,152,1
0.0165714,-15116,-2208,-6148,-1664,-110,-22,1
0.0165714,-15412,-2160,-6204,-1616,-70,-32,1
0.03315216,-15352,-2272,-6072,-1632,-90,101,1
0.01657236,-15276,-2200,-6216,-1680,-121,181,1
0.01657236,-15272,-2296,-5940,-1648,-183,95,1
0.01657039,-15216,-2188,-6200,-1664,-136,25,1
0.01656996,-15376,-2164,-6168,-1648,-65,-5,1
0.01656996,-15348,-2232,-6144,-1616,-100,103,1
0.0165733,-15336,-2148,-6044,-1616,-135,179,1
0.0165733,-15208,-2180,-6188,-1648,-74,9,1
0.01657121,-15204,-2300,-6252,-1664,-97,51,1
0.01658724,-15268,-2388,-6140,-1632,-87,61,1
0.01658724,-15252,-2332,-6244,-1664,-186,120,1
0.01658373,-15316,-2256,-6296,-1632,-99,52,1
0.01658373,-15256,-2332,-6108,-1600,-115,-3,1
0.01658334,-15276,-2236,-6104,-1616,-140,109,1
0.01658334,-15200,-2184,-6300,-1632,-110,74,1
0.0165859,-15272,-2220,-6140,-1664,-77,78,1
0.01658404,-15308,-2184,-5900,-1664,-67,80,1
0.01657822,-15268,-2196,-6136,-1664,-103,105,1
0.01658435,-15380,-2180,-6096,-1616,-64,80,1
0.01658425,-15164,-2292,-6000,-1648,-77,139,1
0.01657976,-15264,-2328,-6080,-1648,-145,182,1
0.016587,-15316,-2356,-5928,-1616,-56,95,1
0.016587,-15328,-2248,-6140,-1648,-45,68,1
0.01658174,-15216,-2328,-6208,-1648,-121,165,1
0.01658174,-15240,-2300,-5972,-1632,-85,102,1
0.01658468,-15356,-2204,-6112,-1648,-77,65,1
0.01658468,-15312,-2204,-5984,-1632,-129,109,1
0.01658506,-15168,-2236,-6112,-1648,-108,5,1
0.01658216,-15200,-2188,-5968,-1648,-113,48,1
0.01658364,-15296,-2244,-6116,-1616,-109,78,1
0.01658298,-15276,-2372,-6036,-1632,-112,168,1
0.01658298,-15256,-2216,-6132,-1664,-78,46,1
0.01658115,-15256,-2276,-5924,-1648,-97,65,1
0.01658248,-15284,-2252,-5900,-1632,-102,20,1
0.01658248,-15296,-2180,-6028,-1648,-143,6,1
0.01658177,-15316,-2172,-6004,-1648,-95,53,1
0.01658177,-15392,-2272,-6124,-1632,-121,94,1
0.01657955,-15256,-2216,-5868,-1664,-153,115,1
0.01657955,-15312,-2300,-6036,-1616,-195,317,1
0.01658186,-15360,-2180,-6052,-1632,-140,377,1
0.01658426,-15116,-2216,-6204,-1584,-135,265,1
0.01658234,-15464,-2452,-6276,-1632,76,120,1
0.01658263,-15180,-2284,-5872,-1632,-44,208,1
0.01658362,-15324,-2260,-5808,-1632,20,86,1
0.01658362,-15312,-2192,-5996,-1632,-40,51,1
0.01658152,-15268,-2232,-6160,-1648,-71,128,1
0.01658376,-15240,-2388,-5924,-1664,-48,42,1
0.01658376,-15196,-2204,-5760,-1664,47,198,1
0.01657952,-15356,-2284,-5884,-1632,-41,95,1
0.0165838,-15304,-2304,-5784,-1648,-149,327,1
0.01658181,-15092,-2100,-6080,-1680,-162,151,1
0.01658181,-15208,-2208,-5948,-1632,-51,65,1
0.01658367,-15368,-2404,-5980,-1648,-97,281,1
0.01658109,-15300,-2416,-5968,-1664,-151,301,1
0.03310799,-15224,-2196,-6128,-1648,-106,230,1
0.0165817,-15436,-2260,-6116,-1600,-60,144,1
0.01657854,-15408,-2380,-6112,-1664,-114,357,1
0.01657854,-15268,-2304,-5928,-1632,-96,180,1
0.01657932,-15264,-2260,-5800,-1632,-92,137,1
0.01657757,-15240,-2320,-6060,-1632,-128,176,1
0.01657802,-15356,-2300,-6020,-1648,-114,240,1
0.01657802,-15216,-2304,-5928,-1632,-157,255,1
0.01657915,-15236,-2348,-5880,-1664,-127,262,1
0.01657831,-15324,-2172,-6060,-1632,-100,268,1
0.01657712,-15228,-2160,-6184,-1632,-97,185,1
0.01657875,-15260,-2300,-6104,-1664,-85,173,1
0.01657875,-15400,-2256,-6132,-1648,-68,113,1
0.01657892,-15144,-2272,-5952,-1648,-127,197,1
0.01657528,-15268,-2300,-5952,-1664,-99,180,1
0.01657528,-15180,-2204,-5980,-1632,-62,130,1
0.01657595,-15276,-2376,-6024,-1632,-75,135,1
0.01657539,-15264,-2272,-6152,-1664,-83,162,1
0.0165776,-15140,-2276,-6140,-1632,-66,152,1
0.01657714,-15288,-2268,-6124,-1632,-17,128,1
0.01668185,-14884,-1960,-5472,-1648,746,662,1
0.01657591,-15148,-2188,-6476,-1632,106,450,1
0.01657591,-14904,-2736,-6612,-1664,91,456,1
0.01657672,-15180,-2108,-6264,-1648,-111,38,1
0.01657672,-15244,-2364,-6148,-1648,-238,172,1
0.01642355,-15336,-2300,-6100,-1664,-232,336,1
0.01657702,-15280,-2300,-6140,-1648,-64,124,1
0.01657702,-15156,-2416,-6304,-1632,-35,208,1
0.033158,-15256,-2380,-6180,-1616,-54,79,1
0.01658049,-15284,-2344,-6020,-1632,-75,91,1
0.01657697,-15352,-2304,-6108,-1616,-76,228,1
0.01657697,-15124,-2276,-6024,-1648,-62,153,1
0.01657338,-15268,-2312,-6088,-1664,-40,149,1
0.01658443,-15324,-2348,-6060,-1648,-4,163,1
0.0165787,-15208,-2452,-6064,-1648,-66,156,1
0.0165787,-15416,-2316,-6100,-1616,-74,260,1
0.01657787,-15216,-2364,-6056,-1664,-103,181,1
0.01657734,-15240,-2392,-6044,-1632,-45,107,1
0.01657909,-15232,-2356,-5992,-1616,-96,153,1
0.01657808,-15212,-2312,-6144,-1632,-47,194,1
0.01657842,-15188,-2336,-6116,-1632,-70,222,1
0.01657966,-15256,-2268,-6400,-1632,-59,191,1
0.01657534,-15144,-2276,-6104,-1632,-88,168,1
0.01657891,-15284,-2292,-6204,-1664,-83,143,1
0.01657897,-15284,-2348,-6076,-1680,-100,177,1
0.01657897,-15308,-2260,-6224,-1632,-66,186,1
0.01657867,-15164,-2252,-6160,-1632,-25,152,1
0.01657853,-15332,-2372,-6008,-1632,-69,105,1
0.01657587,-15180,-2304,-6124,-1632,-70,179,1
0.01657948,-15252,-2280,-6116,-1632,-39,135,1
0.0165785,-15212,-2324,-5920,-1664,11,-18,1
0.0165804,-15256,-2408,-5996,-1616,-60,105,1
0.0165742,-15380,-2328,-6080,-1648,-87,185,1
0.01657519,-15204,-2320,-6096,-1632,-110,239,1
0.01658241,-15240,-2384,-6120,-1648,-107,166,1
0.01657916,-15200,-2312,-6172,-1632,-76,136,1
0.01657697,-15116,-2320,-6052,-1632,-77,143,1
0.01657826,-15220,-2308,-5980,-1616,-71,169,1
0.01657826,-15220,-2264,-6200,-1632,-62,201,1
0.01657718,-15112,-2308,-6160,-1632,-88,127,1
0.01657992,-15240,-2280,-6080,-1648,-76,165,1
0.01657992,-15248,-2324,-6108,-1616,-79,184,1
0.01657523,-15248,-2328,-6164,-1648,-69,255,1
0.01657952,-15260,-2360,-6220,-1648,-55,193,1
0.01657598,-15280,-2408,-6256,-1616,-85,224,1
0.01657723,-15316,-2452,-6192,-1632,-73,218,1
0.01657777,-15316,-2352,-6184,-1616,-33,198,1
0.01657774,-15268,-2368,-5900,-1632,-57,329,1
0.01657863,-15176,-2296,-6112,-1616,-75,287,1
0.01657852,-15192,-2332,-6100,-1616,-62,205,1
0.01657852,-15196,-2276,-6160,-1632,-69,149,1
0.01657796,-15296,-2368,-6232,-1648,-86,160,1
0.01657796,-15208,-2360,-6060,-1648,-65,228,1
0.01657677,-15204,-2408,-6120,-1616,-50,159,1
0.0165789,-15252,-2332,-6268,-1600,-71,125,1
0.01657755,-15316,-2360,-6168,-1632,-74,155,1
0.01657755,-15224,-2388,-6020,-1632,-82,166,1
0.01657977,-15320,-2392,-6144,-1648,-72,208,1
0.01657848,-15172,-2356,-6232,-1632,-73,201,1
0.01657777,-15192,-2352,-6144,-1664,-60,176,1
0.01657953,-15168,-2364,-6104,-1648,-77,228,1
0.01657578,-15236,-2436,-6104,-1648,-71,156,1
0.01657578,-15304,-2360,-6176,-1632,-55,228,1
0.01657808,-15328,-2396,-5964,-1600,-73,220,1
0.01657808,-15200,-2264,-6200,-1616,-58,224,1
0.01657799,-15240,-2372,-6224,-1632,-36,127,1
0.01657799,-15232,-2436,-6256,-1632,-100,250,1
0.01657988,-15196,-2372,-6264,-1616,-50,209,1
0.01657968,-15220,-2268,-6228,-1648,-36,180,1
0.01657968,-15240,-2420,-6172,-1632,-70,138,1
0.01657768,-15216,-2264,-6220,-1616,-129,250,1
0.01657862,-15116,-2452,-6148,-1648,-79,182,1
0.01657862,-15180,-2372,-6032,-1664,-53,181,1
0.03315639,-15208,-2420,-6172,-1632,-52,197,1
0.03315543,-15172,-2488,-6116,-1632,-74,244,1
0.01657568,-15156,-2452,-6304,-1632,-62,89,1
0.01658033,-15208,-2348,-6080,-1632,-81,116,1
0.0165759,-15244,-2508,-6192,-1632,-79,170,1
0.01657727,-15312,-2220,-6196,-1648,-69,91,1
0.01657727,-15216,-2428,-6084,-1600,-85,106,1
0.01657519,-15096,-2440,-6108,-1616,-82,193,1
0.01657519,-15120,-2460,-6276,-1632,-99,154,1
0.0165797,-15236,-2444,-6236,-1632,-127,121,1
0.01657544,-15160,-2480,-6132,-1648,-95,175,1
0.01657544,-15252,-2352,-6144,-1632,-77,171,1
0.01657877,-15304,-2440,-6188,-1648,-74,139,1
0.01657877,-15188,-2356,-6032,-1632,-100,172,1
0.01658134,-15160,-2408,-6392,-1616,-120,125,1
0.01657899,-15144,-2496,-6376,-1600,-89,11,1
0.01657899,-15232,-2404,-6280,-1632,-55,127,1
0.01657777,-15268,-2464,-6176,-1600,-65,159,1
0.01657777,-15268,-2372,-6148,-1616,-64,191,1
0.01657268,-15236,-2520,-6196,-1600,-105,231,1
0.01657701,-15200,-2348,-6204,-1616,-132,134,1
0.01657701,-15148,-2344,-6064,-1632,-108,135,1
0.01657753,-15368,-2368,-6228,-1616,-47,137,1
0.01657658,-15248,-2464,-6140,-1632,-86,193,1
0.01657658,-15260,-2376,-6292,-1632,-97,118,1
0.01657931,-15256,-2396,-6104,-1632,-85,144,1
0.01657926,-15100,-2472,-6228,-1632,-89,213,1
0.01657926,-15196,-2492,-6216,-1648,-77,149,1
0.01657729,-15228,-2380,-6044,-1600,-79,172,1
0.01657856,-15184,-2336,-6192,-1648,-44,114,1
0.01657925,-15324,-2436,-6116,-1616,-108,126,1
0.01657623,-15140,-2444,-6208,-1648,-93,157,1
0.01657811,-15188,-2424,-6064,-1632,-120,159,1
0.01657825,-15136,-2360,-6196,-1616,-82,100,1
0.01657954,-15244,-2392,-6236,-1632,-74,136,1
0.01657628,-15228,-2344,-6264,-1632,-104,155,1
0.01657468,-15228,-2352,-6140,-1632,-64,137,1
0.01657658,-15272,-2400,-6144,-1632,-64,136,1
0.01658024,-15320,-2440,-5952,-1600,-97,126,1
0.01657763,-15304,-2352,-6132,-1600,-92,186,1
0.01657917,-15292,-2372,-6212,-1600,-77,166,1
0.01657917,-15200,-2444,-5968,-1632,-77,146,1
0.01657997,-15268,-2376,-6184,-1600,-93,155,1
0.01657871,-15088,-2352,-6044,-1616,-129,201,1
0.01657871,-15168,-2296,-5960,-1632,-90,30,1
0.01658132,-15244,-2304,-6020,-1616,-143,146,1
0.01657749,-15300,-2328,-6212,-1616,-137,186,1
0.01657749,-15152,-2232,-6108,-1616,-76,86,1
0.01693206,-15360,-2344,-6112,-1616,-114,7,1
0.01657705,-15256,-2412,-6224,-1648,-120,150,1
0.01657705,-15272,-2352,-6244,-1616,-132,64,1
0.01657866,-15188,-2336,-5912,-1616,-95,83,1
0.01657611,-15124,-2392,-6192,-1600,-145,41,1
0.01657801,-15180,-2288,-6224,-1616,-127,10,1
0.01657667,-15380,-2348,-6064,-1632,-128,104,1
0.01657725,-15232,-2272,-5848,-1648,-141,206,1
0.01657773,-15244,-2340,-6100,-1600,-111,198,1
0.01657773,-15132,-2136,-6040,-1648,-33,49,1
0.01657878,-15196,-2280,-6124,-1616,-62,92,1
0.01667442,-15204,-2420,-6116,-1600,-77,140,1
0.01667442,-15316,-2388,-6188,-1584,-24,194,1
0.01657906,-15348,-2208,-5876,-1648,-93,150,1
0.01657689,-15376,-2256,-5856,-1632,-211,312,1
0.01657921,-15120,-2148,-6148,-1632,-120,298,1
0.01657921,-15088,-2300,-6068,-1616,-38,144,1
0.0165782,-15320,-2276,-5868,-1600,-8,188,1
0.01657626,-15160,-2340,-6080,-1632,-5,99,1
0.01657626,-15164,-2372,-6076,-1616,-96,17,1
0.01657605,-15296,-2340,-6064,-1600,-44,29,1
0.01657782,-15168,-2380,-6024,-1616,-118,84,1
0.01657782,-15316,-2364,-6112,-1616,-153,136,1
0.01657923,-15244,-2312,-6048,-1632,-97,52,1
0.01657682,-15372,-2280,-5960,-1616,-15,71,1
0.01657682,-15272,-2332,-5956,-1632,-77,125,1
0.01657844,-15232,-2316,-5932,-1648,-126,92,1
0.01657875,-15204,-2352,-6080,-1616,-111,52,1
0.01657999,-15292,-2312,-6144,-1648,-58,51,1
0.01657999,-15356,-2288,-6052,-1648,-53,-9,1
0.0165788,-15352,-2216,-5840,-1632,-75,45,1
0.01657674,-15384,-2268,-5928,-1616,-68,-37,1
0.01657773,-15200,-1736,-5808,-1648,-149,43,1
0.01658083,-15244,-2440,-5948,-1584,-35,182,1
0.01658083,-15336,-2364,-5800,-1600,-27,167,1
0.01657751,-15336,-2320,-6048,-1632,-1,192,1
0.03315822,-15420,-2208,-6104,-1632,19,348,1
0.03315822,-15304,-2284,-5928,-1648,-2,319,1
0.01657886,-15288,-2236,-5912,-1616,-31,326,1
0.01657782,-15456,-2448,-5984,-1648,-73,272,1
