Time,Ax,Ay,Az,Gx,Gy,Gz
0.01659505,0,0,0,0,0,0,0
0.01659505,-8884.101,-1662.976,-3657.908,-6127.663,-1033.025,-1987.9,0
0.265437,-11539.47,-2341.515,-4420.801,-7541.426,-1391.568,-2413.744,0
0.265437,-11423.93,-2306.954,-4281.937,-7995.659,-1508.24,-2621.42,0
0.265437,-11028.13,-2206.502,-4086.677,-8230.886,-1552.329,-2739.368,0
0.265437,-10751.8,-2074.551,-3931.62,-8378.598,-1539.33,-2793.813,0
0.265437,-10522.98,-2030.885,-3841.128,-8414.595,-1550.506,-2827.377,0
0.01659087,-10423.9,-2031.686,-3816.301,-8426.499,-1575.972,-2856.829,0
0.01659087,-10317.41,-1999.384,-3839.907,-8344.84,-1552.905,-2884.239,0
0.0165901,-10263.45,-1978.821,-3790.659,-8274.353,-1517.102,-2812.367,0
0.0165954,-10261.91,-1977.481,-3805.35,-8191.609,-1510.164,-2814.502,0
0.0165954,-10178.06,-1965.523,-3730.829,-8089.806,-1490.583,-2719.905,0
0.0165954,-10129.21,-1952.478,-3700.338,-8014.449,-1475.178,-2692.332,0
0.0165954,-10055.41,-1947.053,-3662.149,-7934.293,-1468.003,-2643.438,0
0.0497709,-9961.938,-1942.081,-3657.85,-7861.082,-1455.287,-2645.635,0
0.0497709,-9842.185,-1889.092,-3633.508,-7762.723,-1415.118,-2625.89,0
0.0497709,-9861.058,-1882.191,-3658.17,-7753.657,-1408.552,-2636.624,0
0.0497709,-9771.461,-1873.692,-3643.58,-7710.323,-1395.479,-2634.807,0
0.0497709,-9732.286,-1844.106,-3587.098,-7656.743,-1375.156,-2586.114,0
0.01659038,-9693.718,-1870.358,-3555.462,-7617.158,-1397.848,-2561.798,0
0.01659038,-9659.387,-1870.983,-3605.057,-7590.175,-1389.865,-2598.568,0
0.01659032,-9682.059,-1873.775,-3595.152,-7602.915,-1392.258,-2587.389,0
0.01659032,-9654.666,-1858.03,-3567.561,-7586.769,-1388.932,-2547.453,0
0.01658813,-9658.777,-1883.454,-3563.633,-7581.991,-1398.088,-2546.69,0
0.01658813,-9605.436,-1898.493,-3576.499,-7524.934,-1404.055,-2596.015,0
0.01658839,-9564.685,-1883.426,-3531.27,-7500.247,-1396.506,-2542.535,0
0.01588135,-9606.739,-1828.233,-3570.506,-7539.183,-1359.017,-2546.375,0
0.01729856,-9624.44,-1789.173,-3567.195,-7541.847,-1324.416,-2554.549,0
0.01659214,-9630.067,-1819.007,-3529.605,-7544.322,-1353.402,-2524.981,0
0.01659214,-9572.604,-1816.541,-3553.076,-7503.245,-1344.881,-2516.198,0
0.01658966,-9493.291,-1808.68,-3551.489,-7428.153,-1328.97,-2555.042,0
0.01658966,-9532.451,-1785.27,-3597.403,-7461.69,-1317.607,-2599.915,0
0.01659021,-9527.313,-1761.007,-3591.274,-7461.341,-1287.957,-2597.985,0
0.01658917,-9491.908,-1730.627,-3651.311,-7442.423,-1272.318,-2656.612,0
0.01658917,-9412.584,-1675.623,-3660.011,-7372.457,-1231.05,-2667.261,0
0.01658995,-9465.182,-1702.007,-3694.048,-7416.868,-1255.146,-2759.599,0
0.01658995,-9495.48,-1823.702,-3779.335,-7439.634,-1344.922,-2826.319,0
0.03318108,-9570.055,-1860.026,-3690.772,-7496.12,-1404.225,-2751.793,0
0.01639021,-9708.97,-1923.785,-3623.067,-7592.62,-1461.301,-2660.151,0
0.01639021,-9726.291,-1981.182,-3506.14,-7604.729,-1496.967,-2433.037,0
0.03337587,-9582.675,-1972.197,-3402.629,-7498.479,-1472.14,-2422.996,0
0.01658711,-9483.172,-1881.613,-3402.376,-7417.696,-1392.943,-2379.79,0
0.0327004,-9453.481,-1860.644,-3383.393,-7399.5,-1370.091,-2413.698,0
0.01659091,-9485.112,-1831.983,-3456.565,-7419.349,-1355.057,-2420.066,0
0.01659174,-9510.292,-1806.093,-3424.205,-7443.009,-1335.317,-2432.604,0
0.01659989,-9505.041,-1817.691,-3399.887,-7430.041,-1343.735,-2388.132,0
0.01658793,-9517.218,-1854.114,-3392.962,-7448.151,-1369.107,-2375.6,0
0.01659044,-9542.048,-1856.842,-3401.616,-7466.996,-1370.557,-2376.887,0
0.01658305,-9525.256,-1843.467,-3428.528,-7453.987,-1353.623,-2408.098,0
0.01659307,-9539.555,-1810.556,-3422.779,-7478.089,-1335.974,-2424.452,0
0.01658478,-9514.615,-1794.939,-3498.655,-7445.58,-1326.098,-2461.797,0
0.01658478,-9502.981,-1786.427,-3528.285,-7441.097,-1324.182,-2513.979,0
0.01658983,-9453.025,-1750.783,-3539.183,-7398.539,-1298.514,-2553.352,0
0.01658891,-9457.214,-1765.759,-3541.29,-7388.647,-1311.88,-2561.004,0
0.01658903,-9462.033,-1811.634,-3534.633,-7405.816,-1345.416,-2545.917,0
0.016589,-9467.56,-1796.312,-3502.896,-7410.161,-1336.479,-2510.659,0
0.016589,-9503.109,-1824.964,-3493.561,-7432.957,-1357.284,-2480.765,0
0.01658805,-9472.88,-1800.939,-3536.067,-7409.837,-1339.153,-2516.568,0
0.0165918,-9504.002,-1793.735,-3501.296,-7429.237,-1324.821,-2515.643,0
0.01658969,-9511.058,-1795.025,-3492.781,-7447.875,-1328.649,-2490.538,0
0.01659085,-9500.856,-1792.475,-3486.884,-7435.563,-1329.526,-2492.991,0
0.01658784,-9491.393,-1804.28,-3475.505,-7419.442,-1339.42,-2475.2,0
0.0165879,-9473.537,-1837.334,-3475.276,-7405.837,-1360.773,-2428.592,0
0.0165879,-9425.551,-1829.187,-3538.383,-7378.162,-1361.359,-2487.476,0
0.01658637,-9468.871,-1851.697,-3500.283,-7411.475,-1368.205,-2500.116,0
0.01659115,-9476.709,-1860.11,-3530.973,-7421.94,-1377.253,-2489.997,0
0.01659115,-9511.315,-1792.64,-3532.01,-7443.931,-1325.863,-2523.951,0
0.01659048,-9504.767,-1741.221,-3556.749,-7429.952,-1293.648,-2541.029,0
0.01659048,-9474.06,-1791.074,-3567.379,-7415.316,-1337.243,-2538.955,0
0.01658899,-9498.35,-1817.856,-3476.941,-7433.902,-1358.841,-2439.798,0
0.01659061,-9514.741,-1826.571,-3448.89,-7441.93,-1367.644,-2384.546,0
0.01659061,-9490.871,-1813.27,-3449.086,-7432.472,-1354.903,-2445.454,0
0.01659023,-9450.376,-1772.465,-3518.097,-7383.819,-1322.343,-2477.011,0
0.01659006,-9413.313,-1782.019,-3520.067,-7373.432,-1321.738,-2454.386,0
0.0165885,-9417.823,-1818.219,-3575.876,-7372.706,-1361.934,-2566.239,0
0.01658943,-9447.416,-1806.819,-3578.06,-7395.52,-1349.001,-2582.507,0
0.01658943,-9523.691,-1827.919,-3570.198,-7458.261,-1359.552,-2569.778,0
0.01658805,-9562.631,-1842.557,-3539.113,-7478.897,-1374.521,-2525.836,0
0.01658971,-9520.479,-1797.375,-3502.059,-7450.824,-1331.863,-2377.553,0
0.01658971,-9473.354,-1804.666,-3468.641,-7414.711,-1339.435,-2369.556,0
0.0165886,-9451.3,-1775.044,-3502.814,-7389.069,-1309.652,-2438.683,0
0.01658775,-9438.476,-1780.099,-3564.736,-7388.296,-1314.22,-2503.52,0
0.01658775,-9445.813,-1757.133,-3585.401,-7398.494,-1306.777,-2536.851,0
0.01659182,-9449.306,-1723.919,-3657.166,-7396.838,-1279.101,-2566.16,0
0.01659182,-9439.274,-1709.675,-3634.812,-7389.275,-1281.253,-2593.783,0
0.01659,-9449.122,-1711.617,-3653.301,-7396.913,-1284.122,-2616.613,0
0.01658896,-9447.291,-1730.683,-3620.436,-7382.292,-1300.852,-2599.646,0
0.01658896,-9436.201,-1787.947,-3637.029,-7391.652,-1342.481,-2575.445,0
0.01659066,-9476.698,-1808.644,-3657,-7418.225,-1345.168,-2612.313,0
0.01658838,-9437.156,-1782.864,-3648.299,-7387.977,-1310.122,-2615.288,0
0.01658838,-9365.353,-1869.04,-3527.289,-7328.831,-1285.352,-2165.903,0
0.01658867,-9276.143,-1861.029,-3419.104,-7274.398,-999.6782,-1963.843,0
0.01658542,-9563.053,-1753.658,-3556.294,-7471.887,-1380.23,-2674.993,0
0.01658525,-9750.318,-2069.278,-3775.716,-7627.644,-1727.367,-3083.497,0
0.01658525,-9650.1,-2169.468,-4065.535,-7541.109,-2255.649,-2727.679,0
0.01658965,-9682.865,-2278.553,-3783.813,-7578.772,-2167.184,-3119.663,0
0.01658653,-9555.843,-1784.964,-3981.489,-7472.227,-1523.683,-3862.221,0
0.01658771,-9264.739,-915.8374,-4257.244,-7249.883,-667.7427,-3674.301,0
0.01658865,-9494.353,-1742.47,-3910.494,-7435.006,-806.9595,-1955.685,0
0.01658865,-9785.636,-190.0349,-3705.25,-7648.469,-1213.414,-1293.323,0
0.01659079,-9503.677,-325.7057,-3042.178,-7427.702,-1305.716,-2551.463,0
0.01659079,-10176.68,-316.2633,-3815.607,-7950.38,-1503.485,-4208.899,0
0.01609153,-8554.704,52.99217,-4697.266,-6705.357,-3008.652,-2327.263,0
0.01656478,-9254.038,-2635.247,-2884.198,-7238.735,-2122.272,-5268.166,0
0.01656478,-7754.628,-1175.352,-3710.737,-6099.518,-1706.439,1153.648,0
0.01658828,-8540.977,1206.755,55.52882,-6706.271,2892.612,3589.663,0
0.01657878,-8659.556,3211.871,-214.8266,-6804.002,2894.695,3738.769,0
0.01658255,-9350.245,2945.092,-646.0289,-7328.802,-1474.62,-3172.715,0
0.0165849,-9955.023,-2624.37,-4129.767,-7798.46,-4045.555,-6307.548,0
0.01658686,401.1124,-261.511,-3976.362,118.5394,2439.086,-849.4627,0
0.01658133,-4521.115,491.7912,-1611.967,-3680.068,-861.699,6197.504,0
0.01658546,-8907.923,-2919.244,328.5091,-7038.171,-4075.874,2957.54,0
0.01658238,-8233.166,-2737.843,379.1238,-6523.201,-3132.428,2725.511,0
0.01658238,-7040.977,-1867.443,196.0365,-5607.456,-964.3274,2915.132,0
0.01658457,-8051.662,-986.944,-1060.738,-6382.361,642.6981,324.1314,0
0.01658457,-8624.192,-659.4285,-2790.067,-6827.425,223.9976,-2640.786,0
0.01658077,-8477.747,-922.8907,-4644.964,-6699.404,-793.8208,-3805.506,0
0.01658708,-8539.314,-1933.028,-5687.108,-6744.371,-1433.958,-4090.502,0
0.01658323,-8403.199,-2094.032,-5591.169,-6651.726,-1545.564,-3478.573,0
0.01658273,-7790.252,-2776.214,-4637.953,-6173.666,-3739.73,-4369.069,0
0.01658273,-8456.832,-1806.331,-5495.683,-6688.103,-4630.574,-8310.192,0
0.0168423,-9514.934,-2302.299,-9137.84,-7489.838,-1002.129,-9904.986,0
0.01658015,-10175.19,-385.4592,-9050.631,-7992.875,544.524,-11614.83,0
0.01658015,-9694.056,220.6947,-9231.585,-7618.293,908.9279,-9344.44,0
0.01658335,-10238.69,85.26575,-8304.194,-8020.486,461.1165,-8947.313,0
0.01658172,-9693.69,-1318.906,-5207.453,-7607.121,-3021.491,-12839.28,0
0.01658385,-11264.53,-3382.927,-10195.69,-8802.71,-5062.357,-11054.04,0
0.01658357,-12391.91,-4585.601,-8144.377,-9645.302,-8120.663,-8525.151,0
0.01658357,-12640.66,-7455.134,-5409.364,-9822.781,-7649.625,-3444.236,0
0.016583,-12293.06,-7017.875,-2095.5,-9554.335,-6668.791,202.5353,0
0.0165849,-10911.1,-6532.018,1444.503,-8485.688,-7030.841,1133.204,0
0.01658638,-10063.07,-6802.011,1240.017,-7830.934,-4740.594,2609.201,0
0.01658329,-8832.304,-4568.169,2093.813,-6896.483,-4066.048,5666.09,0
0.01658369,-8397.067,-3428.551,3825.527,-6573.915,-7736.946,9982.011,0
0.01658048,-8324.034,-7617.699,6111.263,-6524.472,-4453.563,13826.71,0
0.01719987,-8798.678,-2056.744,6774.132,-6892.664,7673.997,-1929.822,0
0.01658192,-9652.525,5545.641,-3628.933,-7547.843,5148.973,-11825.23,0
0.01658668,-9233.363,4775.94,-9017.181,-7227.658,-2497.228,-14291.79,0
0.01658258,-9998.895,-3291.714,-9817.375,-7804.542,-4461.634,-8085.052,0
0.01658338,-10366.84,-3192.306,-8917.722,-8079.306,5838.827,-11626.7,0
0.01658493,-10854.45,3666.001,-9199.076,-8470.783,5196.191,-4566.192,0
0.01658493,-10505.82,3382.846,-3899.067,-8186.895,8157.85,2674.838,0
0.01657816,-10076.3,6267.25,492.7628,-7851.982,9388.08,5633.86,0
0.01657816,-9758.216,7134.303,3085.279,-7612.937,7192.104,4864.167,0
0.01658376,-10154.1,3177.493,2317.066,-7915.73,4249.472,3132.785,0
0.01658622,-9654.869,2061.398,1851.013,-7538.114,-1211.213,5882.407,0
0.01658082,-9216.164,2633.246,3129.213,-7195.414,-109.1682,9359.666,0
0.01658696,-8756.021,3863.165,3848.471,-6851.229,298.7243,4817.302,0
0.01658515,-9308.827,3613.935,1380.169,-7277.28,5687.123,-4010.987,0
0.01658515,-8325.015,6882.766,-3540.059,-6536.693,10846.14,-6970.268,0
0.01658447,-9854.883,7100.981,-6801.731,-7700.706,7289.173,-4400.724,0
0.01658447,-9428.705,3601.491,-4844.395,-7382.95,1379.721,-973.611,0
0.01658125,-10008.98,960.3995,-2835.912,-7813.039,-1675.068,-2851.858,0
0.01658686,-10701.97,-1338.683,-4052.027,-8340.223,-2774.977,-7446.611,0
0.01657951,-10755.5,-2373.018,-6584.199,-8381.263,-3239.676,-10345.97,0
0.01658539,-10276.42,-3086.069,-7613.948,-8011.583,-3408.541,-5368.456,0
0.01658571,-10069.09,-2869.607,-5107.807,-7851.601,-2459.547,-3079.919,0
0.01658036,-9848.328,-1645.05,-3338.662,-7686.787,-831.7725,-2888.313,0
0.01667991,-9483.038,-494.1432,-2714.775,-7408.136,230.7806,-3092.83,0
0.01667991,-9258.037,-169.799,-2293.163,-7233.519,450.0893,-535.7286,0
0.01658533,-9337.21,323.7974,-180.4181,-7296.214,1062.188,3633.374,0
0.01658533,-10927.98,1391.316,1260.728,-8503.328,592.703,4780.666,0
0.01658402,-11161.71,1311.625,1822.425,-8690.477,757.8083,1373.174,0
0.01658535,-10680.48,616.7556,20.5838,-8322.597,1167.115,-1501.071,0
0.01658535,-10201.07,429.8965,-1252.911,-7940.771,1077.111,-2699.175,0
0.01658137,-9828.482,-643.6193,-2157.523,-7651.495,-908.0601,260.4106,0
0.01658417,-9838.516,-1693.19,-1136.844,-7669.062,-3083.322,2378.15,0
0.01658417,-10009.09,-3724.513,-58.8151,-7791.275,-3902.78,3245.186,0
0.01658509,-9823.651,-4175.337,951.0035,-7654.299,-3223.538,5088.825,0
0.01658334,-9420.537,-2757.79,1544.601,-7356.283,-2493.133,7093.643,0
0.01658464,-9295.551,-1697.624,2066.952,-7258.706,-787.7275,4632.781,0
0.01658049,-9303.244,-622.816,311.4381,-7275.939,1427.572,-1265.034,0
0.01658524,-9281.076,125.5711,-2997.075,-7247.897,1557.864,-6086.749,0
0.01658524,-9762.5,-181.013,-5952.868,-7621.856,500.2713,-7258.824,0
0.01658001,-9863.801,-297.519,-6628.975,-7699.148,-466.0443,-5963.3,0
0.01658342,-9677.717,-780.9954,-5807.051,-7556.689,-160.1582,-3936.483,0
0.01658342,-9007.34,-78.34045,-4557.503,-7045.319,48.68248,-1505.678,0
0.01658328,-8364.032,-472.3364,-2801.726,-6561.572,-26.77912,1871.265,0
0.0166904,-7953.512,-339.3806,-871.3141,-6248.791,261.0648,4505.031,0
0.0166904,-8253.265,-191.6763,321.8311,-6488.066,987.2227,4222.93,0
0.01658162,-7807.272,903.5059,-56.49163,-6147.412,1430.903,2257.863,0
0.01658162,-7853.544,-91.80183,-1380.411,-6188.196,158.2247,-2930.102,0
0.01658165,-8429.233,-61.18233,-4648.357,-6636.746,244.5558,-6518.47,0
0.01658127,-8501.123,-2437.656,-7660.086,-6689.14,643.8538,-12338.56,0
0.01658297,-8202.701,-3116.563,-10916.72,-6462.818,-2681,-15314.32,0
0.01658297,-8254.671,-4548.676,-11458.09,-6500.506,-5925.574,-11013.74,0
0.01658567,-9389.011,-3666.452,-9674.987,-7372.792,-3593.935,-7043.996,0
0.01682616,-10306.76,-2446.091,-7115.609,-8066.312,-3147.183,-6224.955,0
0.01658428,-10440.58,-3071.802,-5506.103,-8171.521,-2711.097,-4042.189,0
0.01658525,-10208.25,-2786.6,-4441.856,-7975.186,-2936.578,-1716.513,0
0.01658525,-10079,-3283.521,-3380.108,-7876.816,-5168.15,-1606.019,0
0.01658384,-9928.283,-4000.181,-3835.621,-7762.998,-2358.075,-21.18174,0
0.01658384,-9909.617,-1844.318,-2344.057,-7742.037,-78.76858,-1382.277,0
0.01658475,-10199.47,-507.8201,-2876.55,-7970.207,1456.868,-3437.273,0
0.0165863,-10479.72,337.3981,-3928.664,-8172.396,1437.792,-5887.032,0
0.01658494,-9932.804,-206.7157,-4495.677,-7742.463,261.2664,-5438.142,0
0.01658494,-9229.124,-1030.213,-4465.358,-7221.969,-1414.559,-3330.523,0
0.01658212,-8578.685,-1850.585,-3620.292,-6718.302,-2363.662,-3543.041,0
0.01664954,-8351.264,-2585.635,-3656.811,-6553.151,-3143.487,-4441.885,0
0.01658016,-8801.129,-2574.261,-4402.492,-6892.11,-2964.847,-3622.564,0
0.01658016,-9709.996,-2288.829,-4047.788,-7605.831,-2001.535,-3157.233,0
0.01657315,-10354.57,-1612.179,-3216.034,-8087.454,-1763.517,-2740.815,0
0.01658412,-10579.73,-1623.924,-2825.396,-8259.943,-2060.91,-1117.934,0
0.01658412,-10544.44,-1721.406,-1977.157,-8224.315,-2248.564,219.9097,0
0.01658407,-10248.54,-1722.077,-1263.771,-7994.8,-2157.365,724.7605,0
0.01658407,-10099.37,-1938.3,-714.3488,-7883.257,-1569.67,48.50988,0
0.01658865,-10175.42,-1911.622,-111.3219,-7935.561,-2090.875,87.43899,0
0.01658393,-9714.308,-2504.624,-1711.463,-7586.568,-2471.905,-379.5097,0
0.01658393,-9678.003,-1970.1,-2093.223,-7546.028,-667.5493,-1225.412,0
0.01658316,-9668.628,-674.2502,-2520.076,-7543.887,513.5155,-1573.664,0
0.01658316,-9424.955,134.4928,-2685.637,-7358.432,883.6557,-1535.478,0
0.03316596,-9210.231,107.797,-2985.871,-7195.947,1091.835,-1974.734,0
0.01658891,-9439.199,300.0378,-3271.045,-7377.237,1993.389,-3357.14,0
0.01658308,-10258.12,915.2726,-3673.064,-7994.44,3474.459,-5638.019,0
0.01658405,-11640.04,1785.511,-4373.972,-9051.465,3545.605,-4968.288,0
0.01658505,-12728.58,2145.044,-3858.142,-9879.489,1430.096,-612.7664,0
0.01658157,-14205.4,1784.401,-2163.359,-10996.09,1184.577,-1380.96,0
0.01658385,-14276.62,1477.668,-1692.616,-11039.73,1466.301,-4453.201,0
0.01658253,-12525.18,1208.72,-2824.245,-9684.626,-234.4658,-2742.33,0
0.01658514,-9864.339,-585.0958,-2003.465,-7652.455,-3011.103,1023.556,0
0.01658699,-7875.201,-2362.25,-469.6873,-6134.941,-4258.851,1139.276,0
0.01611433,-7174.949,-2990.56,-793.9951,-5608.307,-3524.617,373.7394,0
0.01658107,-7322.335,-1110.725,-136.2777,-5747.749,-2294.957,1759.033,0
0.01658107,-7164.376,-2278.86,-1272.987,-5629.855,-4201.24,532.2241,0
0.01657052,-8930.137,-3902.918,-2531.835,-6993.019,-2752.842,-3242.888,0
0.01657367,-8906.851,-2930.576,-4071.084,-6978.158,-929.0529,-3822.651,0
0.01657085,-8971.427,-755.6619,-4504.415,-7025.701,1515.477,-2433.521,0
0.01657006,-9216.155,1485.84,-3136.755,-7210.224,2998.429,-1892.152,0
0.01657178,-9063.809,2783.98,-2778.953,-7099.348,3721.083,-1182.062,0
0.01657099,-8889.604,2755.914,-2731.141,-6967.822,4134.603,-666.8368,0
0.01657099,-9492.206,3081.596,-2682.022,-7420.893,4998.923,-2048.36,0
0.01657894,-9969.261,3299.585,-2827.814,-7788.919,5466.142,-2827.422,0
0.0165718,-10429.17,3506.372,-2133.626,-8137.649,4600.248,-800.4082,0
0.01657037,-11463.16,3172.302,-1442.295,-8923.09,2636.353,1465.928,0
0.01642679,-11323.4,1514.828,-721.6298,-8804.609,617.152,225.6227,0
0.01671778,-10722.27,65.83485,-1472.754,-8344.175,-775.1964,-537.5765,0
0.01657162,-10362.05,-831.4602,-2384.891,-8066.165,-1334.13,-1185.589,0
0.01657128,-10018.16,-1183.431,-2709.713,-7797.895,-1360.661,-1648.285,0
0.01657128,-9632.32,-1202.266,-3060.387,-7512.381,-1036.532,-1795.618,0
0.01656992,-9309.03,-1048.613,-3084.53,-7258.328,-746.992,-1982.576,0
0.01657092,-9119.541,-1013.13,-3200.917,-7120.785,-799.0304,-2206.032,0
0.0165729,-9081.747,-962.905,-3513.226,-7090.591,-710.83,-2568.125,0
0.01657135,-9238.949,-884.9124,-3897.316,-7217.919,-576.8599,-3096.933,0
0.01657365,-9545.688,-880.3571,-4055.207,-7458.458,-542.2883,-3271.023,0
0.01657103,-9738.22,-912.5438,-4050.006,-7592.693,-726.5135,-2867.759,0
0.01691919,-9695.665,-971.427,-3916.82,-7568.868,-879.7449,-2566.142,0
0.01657283,-9545.552,-1030.836,-3682.448,-7454.246,-846.8809,-2560.147,0
0.01657521,-9486.053,-1025.637,-3732.949,-7409.369,-769.7288,-2826.19,0
0.01657604,-9562.115,-918.3951,-3893.789,-7472.568,-633.7623,-3013.164,0
0.01657805,-9615.286,-830.1253,-4042.347,-7513.484,-595.3452,-3049.063,0
0.01657813,-9668.865,-831.4436,-4035.304,-7558.902,-614.1463,-2885.555,0
0.01657309,-9670.264,-843.4426,-3926.212,-7550.971,-663.077,-2710.252,0
0.01657278,-9633.06,-838.6272,-3847.819,-7513.604,-648.2103,-2850.915,0
0.01657278,-9622.244,-846.0778,-3794.262,-7518.709,-657.5608,-2837.751,0
0.01657649,-9600.75,-903.1708,-3838.175,-7502.375,-720.113,-2774.679,0
0.01657868,-9583.966,-916.6415,-3827.459,-7485.278,-727.8859,-2733.798,0
0.01657868,-9568.876,-944.7461,-3785.242,-7478.395,-746.6279,-2699.851,0
0.01657669,-9507.351,-914.7943,-3791.816,-7427.229,-703.6185,-2762.675,0
0.0165757,-9505.207,-892.1302,-3788.203,-7430.475,-639.8568,-2862.504,0
0.01657343,-9551.318,-827.2791,-3871.49,-7457.208,-552.4752,-2972.582,0
0.0165768,-9625.172,-784.6325,-3834.878,-7513.779,-509.0167,-2853.163,0
0.0165768,-9615.2,-806.8471,-3772.596,-7510.492,-615.5236,-2754.228,0
0.01657349,-9655.816,-839.4421,-3754.15,-7550.291,-664.0203,-2724.358,0
0.01658846,-9610.71,-889.491,-3705.646,-7511.194,-703.8048,-2664.479,0
0.01658846,-9610.657,-885.0674,-3653.265,-7511.126,-704.3454,-2618.787,0
0.01657837,-9572.915,-896.0827,-3689.506,-7477.863,-720.8889,-2707.414,0
0.0165772,-9569.743,-919.3389,-3710.84,-7480.007,-680.8499,-2768.011,0
0.0165772,-9624.688,-911.5519,-3663.993,-7526.5,-673.9808,-2732.625,0
0.01657187,-9654.629,-878.2802,-3636.917,-7540.38,-664.3478,-2646.614,0
0.0165721,-9662.835,-887.3364,-3616.76,-7559.742,-671.9166,-2570.842,0
0.01657418,-9665.227,-872.988,-3573.62,-7548.039,-650.5251,-2553.872,0
0.01657418,-9671.575,-865.3727,-3539.031,-7552.697,-664.006,-2494.489,0
0.01657557,-9643.921,-845.6816,-3554.103,-7522.534,-657.4641,-2487.287,0
0.01657516,-9574.25,-832.8861,-3492.716,-7482.602,-635.2041,-2496.963,0
0.01657899,-9573.794,-839.159,-3514.09,-7478.02,-645.5817,-2523.606,0
0.01657598,-9585.993,-837.1436,-3530.548,-7491.95,-654.5756,-2524.444,0
0.01657812,-9626.687,-836.2665,-3548.203,-7518.691,-617.3401,-2580.391,0
0.01657717,-9665.943,-824.4549,-3539.155,-7548.608,-620.8646,-2507.188,0
0.01657737,-9656.521,-851.6169,-3506.723,-7545.653,-714.2457,-2454.241,0
0.01657661,-9619.761,-916.2704,-3460.051,-7517.449,-772.2696,-2339.063,0
0.01657661,-9562.728,-964.6682,-3342.786,-7469.494,-931.1887,-2297.149,0
0.01657568,-9635.933,-963.5951,-3466.896,-7516.749,-960.54,-2493.188,0
0.01657832,-9622.214,-1052.777,-3526.408,-7510.66,-1085.124,-2621.102,0
0.01657519,-9671.833,-1224.447,-3516.675,-7552.966,-1309.403,-2402.706,0
0.01657157,-9723.955,-1407.42,-3243.447,-7592.551,-1885.549,-1862.961,0
0.01657477,-9668.563,-1750.801,-3276.6,-7545.46,-2323.44,-1775.968,0
0.01657477,-9496.126,-1951.452,-3310.681,-7418.152,-1984.142,-2209.419,0
0.01657515,-9435.785,-1752.887,-3544.743,-7372.642,-1438.729,-2536.143,0
0.01657515,-9470.385,-1355.484,-3666.896,-7395.341,-1004.77,-2642.647,0
0.01657733,-9506.038,-1065.493,-3773.953,-7427.504,-768.6407,-2735.532,0
0.01657733,-9584.172,-841.7615,-3883.532,-7487.459,-541.2857,-2920.581,0
0.01657308,-9654.43,-678.8148,-3985.603,-7536.637,-406.0374,-2904.146,0
0.01657795,-9654.126,-626.7153,-3874.707,-7540.559,-381.2963,-2723.508,0
0.01657652,-9607.007,-609.2607,-3755.288,-7499.906,-492.8383,-2486.797,0
0.01657457,-9488.323,-644.6915,-3722.383,-7418.138,-516.0413,-2519.188,0
0.01657457,-9436.11,-684.1279,-3669.544,-7374.254,-463.5838,-2611.703,0
0.01657421,-9466.255,-708.6848,-3700.316,-7397.831,-589.0605,-2512.604,0
0.0165778,-9431.545,-761.5037,-3674.288,-7371.726,-650.5912,-2446.764,0
0.0165778,-9386.584,-667.4938,-3636.276,-7342.317,-586.6702,-2521.532,0
0.01657763,-9565.202,-640.5631,-3562.904,-7479.248,-679.1901,-2726.231,0
0.01657763,-9452.75,-1155.229,-3757.075,-7384.388,-1306.177,-2722.734,0
0.01657864,-9513.378,-1368.526,-3995.264,-7439.837,-1305.345,-2972.079,0
0.01657787,-9508.223,-1324.624,-4071.498,-7427.061,-827.3928,-3345.781,0
0.01657787,-9422.063,-1182.746,-4134.619,-7365.784,-774.0103,-3300.421,0
0.01657355,-9188.319,-1194.781,-4151.846,-7183.303,-835.2907,-2904.812,0
0.01657724,-9191.703,-1077.339,-4082.613,-7182.691,-532.8373,-3947.033,0
0.01657724,-9449.407,-1341.559,-4656.82,-7398.224,-1058.03,-5114.697,0
0.01657597,-9522.438,-1700.31,-5136.161,-7445.056,-2256.503,-5643.967,0
0.01657633,-9859.296,-2198.855,-5845.193,-7701.881,-2077.784,-6946.131,0
0.01657633,-10176.15,-1891.973,-6587.267,-7946.612,-1449.443,-5401.59,0
0.01657606,-10275.47,-1676.688,-5202.827,-8015.382,-1082.746,-3558.056,0
0.01657559,-10289.83,-1370.881,-3810.61,-8023.644,-1171.899,-2303.712,0
0.01657977,-10192.75,-1379.211,-2907.825,-7947.088,-1302.226,-1420.198,0
0.01657977,-9911.759,-1394.38,-2381.124,-7735.228,-1311.185,-1089.905,0
0.01657769,-9688.034,-1317.718,-2191.485,-7555.049,-1186.894,-1368.721,0
0.01657769,-9590.37,-1227.057,-2411.518,-7494.188,-1075.944,-1766.787,0
0.01657656,-9661.933,-1081.71,-2673.946,-7545.078,-876.8795,-2200.776,0
0.01657454,-9844.18,-949.3968,-2937.197,-7693.407,-604.2699,-2358.199,0
0.01657454,-9921.878,-761.5762,-3093.628,-7739.019,-365.9365,-2329.456,0
0.01657453,-9910.72,-642.8594,-3038.258,-7721.012,-203.5038,-2224.356,0
0.01657375,-9877.576,-509.4882,-2974.421,-7695.218,-34.9182,-2204.05,0
0.01657716,-9868.572,-495.8344,-2997.616,-7692.464,1.238262,-2280.593,0
0.01657481,-9866.194,-547.864,-2968.207,-7694.827,-111.6391,-2232.623,0
0.01657371,-9929.801,-687.789,-2825.729,-7738.721,-442.9568,-2159.269,0
0.01657371,-9914.206,-868.4153,-2825.862,-7730.813,-865.8038,-2034.985,0
0.01657291,-9938.813,-1041.151,-2841.358,-7740.396,-1011.705,-2008.356,0
0.01657696,-9862.668,-1060.959,-2785.199,-7695.193,-823.0873,-2000.791,0
0.01657378,-9861.215,-997.9645,-2780.132,-7689.581,-571.7557,-1957.667,0
0.01657874,-9836.927,-902.1491,-2714.52,-7670.994,-424.0762,-2037.188,0
0.01657405,-9874.815,-870.7291,-2709.351,-7695.534,-451.5186,-2006.427,0
0.01657529,-9930.067,-886.9103,-2780.292,-7746.481,-583.0737,-2038.395,0
0.01657653,-9922.22,-932.5335,-2768.153,-7726.885,-616.5036,-1971.682,0
0.01658071,-9919.171,-984.788,-2674.986,-7733.203,-654.7949,-1881.683,0
0.01658071,-9898.315,-984.051,-2606.388,-7717.082,-644.4014,-1844.233,0
0.01546085,-9901.375,-954.9409,-2633.506,-7728.181,-633.9921,-1848.635,0
0.01769439,-9905.315,-962.4774,-2610.456,-7717.775,-704.8262,-1829.198,0
0.01658013,-9889.495,-1020.959,-2585.731,-7710.038,-832.6518,-1824.785,0
0.01588143,-9882.431,-1073.92,-2584.628,-7700.183,-894.1122,-1880.159,0
0.0165797,-9889.296,-1067.004,-2670.035,-7714.295,-880.3217,-1891.654,0
0.0165797,-9922.217,-1097.875,-2689.402,-7734.955,-801.0617,-1929.431,0
0.01657679,-9958.926,-1012.339,-2644.501,-7758.395,-659.437,-1780.043,0
0.01657749,-9915.665,-957.1768,-2508.769,-7733.971,-598.3196,-1681.632,0
0.01657707,-9873.605,-952.8383,-2496.713,-7697.346,-605.8741,-1732.056,0
0.01657707,-9863.384,-966.692,-2557.401,-7680.773,-672.1364,-1928.077,0
0.0165763,-9921.743,-1008.659,-2688.979,-7729.892,-757.155,-1996.408,0
0.01658168,-9944.837,-1061.357,-2751.096,-7747.412,-849.5228,-1901.306,0
0.01657891,-9924.821,-1116.045,-2666.021,-7740.811,-896.0303,-1831.594,0
0.01657891,-9935.163,-1114.394,-2620.693,-7735.304,-869.1793,-1812.781,0
0.01657743,-9883.199,-1054.5,-2570.14,-7708.827,-788.3132,-1774.303,0
0.01658039,-9896.239,-1022.319,-2564.511,-7723.287,-722.3189,-1819.011,0
0.01657489,-9952.739,-1003.988,-2606.913,-7766.422,-707.2889,-1855.646,0
0.01657973,-9954.526,-998.1619,-2607.456,-7758.714,-738.9805,-1797.524,0
0.0165802,-9937.362,-1036.895,-2656.312,-7745.438,-789.9332,-1860.029,0
0.0165802,-9891.653,-1064.681,-2693.107,-7710.459,-793.8309,-1925.24,0
0.01657948,-9852.786,-1070.784,-2728.412,-7685.318,-783.3405,-1963.053,0
0.01657812,-9883.624,-1076.982,-2675.017,-7704.651,-787.6322,-1903.944,0
0.01657673,-9846.457,-1084.522,-2670.677,-7680.803,-777.7114,-1905.827,0
0.01657915,-9903.754,-1054.618,-2703.08,-7720.321,-773.8521,-1889.518,0
0.01657915,-9848.691,-1063.791,-2713.771,-7678.271,-796.0303,-1964.067,0
0.0165767,-9897.569,-1046.305,-2731.802,-7711.343,-792.2579,-1956.798,0
0.01657663,-9877.467,-1058.862,-2753.662,-7704.856,-849.4184,-1923.101,0
0.01658294,-9882.525,-1093.546,-2717.68,-7708.77,-833.0346,-1982.954,0
0.01657569,-9878.904,-1126.185,-2747.751,-7701.603,-858.0031,-1932.558,0
0.01657602,-9870.144,-1158.255,-2653.604,-7699.395,-875.5117,-1905.122,0
0.01648758,-9908.405,-1149.086,-2680.357,-7724.235,-863.6858,-1866.395,0
0.01657839,-9915.157,-1092.07,-2701.807,-7724.881,-797.4244,-1917.522,0
0.01658073,-9958.767,-1078.995,-2724.296,-7758.083,-777.4692,-1997.518,0
0.01657286,-9992.795,-1030.553,-2793.026,-7788.248,-739.4538,-1980.481,0
0.01657913,-9963.447,-1037.159,-2758.571,-7761.059,-736.7131,-1922.821,0
0.01657484,-9921.375,-1003.161,-2738.686,-7728.75,-719.2845,-1932.743,0
0.01657608,-9909.918,-982.3808,-2756.178,-7724.423,-699.8477,-1993.661,0
0.0165779,-9850.132,-1008.865,-2743.858,-7687.674,-728.1752,-1987.897,0
0.01657803,-9843.285,-1019.688,-2742.586,-7673.815,-762.3916,-1939.395,0
0.01658829,-9872.82,-1024.921,-2736.422,-7696.61,-743.4767,-1954.034,0
0.01652763,-9925.841,-1031.592,-2694.396,-7732.761,-716.8203,-1925.221,0
0.01652763,-9919.078,-1032.373,-2692.383,-7723.072,-736.3843,-1880.86,0
0.01652763,-9918.254,-1028.6,-2635.359,-7726.826,-738.2874,-1856.914,0
0.01663463,-9904.458,-1009.084,-2629.578,-7716.244,-734.262,-1906.302,0
0.01663463,-9856.483,-1007.229,-2668.727,-7684.063,-758.4395,-1944.152,0
0.01663463,-9867.484,-1012.502,-2771.955,-7683.779,-754.4834,-2062.019,0
0.01663463,-9885.138,-1032.782,-2795.245,-7701.825,-778.5923,-1946.674,0
0.01663463,-9902.327,-1004.653,-2710.033,-7710.56,-749.8607,-1890.565,0
0.01663463,-9860.257,-1029.257,-2683.819,-7682.863,-774.8062,-1898.375,0
0.01663463,-9887.938,-1028.37,-2739.808,-7704.131,-754.6986,-1979.203,0
0.01663463,-9928.612,-1025.168,-2688.525,-7730.763,-752.2618,-1959.277,0
0.01663463,-9952.188,-1023.322,-2713.153,-7748.628,-784.9371,-1897.764,0
0.3333333,-9932.415,-1053.825,-2663.932,-7733.328,-774.934,-1863.052,1
0.3333333,-9879.596,-1006.19,-2679.728,-7692.901,-725.7449,-1896.142,1
0.3333333,-9877.557,-999.6849,-2675.287,-7695.882,-683.5226,-1926.944,1
0.3333333,-9879.937,-943.2232,-2671.232,-7697.791,-606.8624,-1916.977,1
0.1326294,-9861.534,-930.4671,-2730.152,-7688.248,-574.3546,-1913.009,1
0.01658225,-9862.114,-933.8428,-2653.949,-7675.522,-593.2573,-1884.43,1
0.01658225,-9859.165,-970.9298,-2666.603,-7673.41,-654.9556,-1842.759,1
0.01658225,-9833.318,-1023.889,-2602.814,-7671.541,-730.9981,-1780.175,1
0.01657822,-9874.174,-1063.141,-2606.362,-7689.612,-792.9534,-1835.154,1
0.01657822,-9882.507,-1054.829,-2636.589,-7704.868,-820.333,-1897.576,1
0.01657696,-9924.075,-1107.552,-2701.068,-7727.713,-866.3228,-1897.004,1
0.01657696,-9952.477,-1105.652,-2702.761,-7762.526,-838.592,-1802.392,1
0.01657925,-9882.457,-1099.503,-2611.63,-7704.367,-780.8755,-1793.342,1
0.01657625,-9860.111,-1056.189,-2639.398,-7682.908,-741.5045,-1920.392,1
0.01657625,-9908.061,-1020.491,-2780.945,-7719.63,-691.2561,-2045.287,1
0.01657976,-9922.805,-1035.378,-2827.177,-7726.377,-737.9702,-1997.703,1
0.01657933,-9905.693,-1052.338,-2783.519,-7713.202,-797.7421,-1906.229,1
0.01657933,-9884.489,-1053.633,-2765.346,-7696.98,-723.2498,-1870.568,1
0.016579,-9919.756,-1023.214,-2652.689,-7723.949,-721.6624,-1749.907,1
0.016579,-9928.124,-1024.314,-2561.9,-7739.107,-824.5156,-1612.665,1
0.0165815,-9838.779,-1061.923,-2576.32,-7666.344,-837.8419,-1822.608,1
0.01657849,-9766.695,-1135.015,-2690.879,-7602.693,-772.0884,-2097.864,1
0.01657849,-9789.391,-1166.41,-2857.823,-7633.814,-783.0894,-2371.225,1
0.01657985,-9927.675,-1140.184,-3022.359,-7735.27,-901.2564,-2306.731,1
0.01657985,-9950.839,-1154.837,-3031.182,-7748.294,-975.9493,-2115.581,1
0.01657822,-9950.546,-1253.474,-2861.656,-7752.224,-1018.221,-1844.813,1
0.01656818,-9864.658,-1237.302,-2642.27,-7690.838,-1022.195,-1680.793,1
0.01658754,-9847.662,-1294.956,-2511.027,-7677.955,-1029.464,-1841.331,1
0.01658754,-9902.205,-1267.555,-2694.571,-7719.734,-1006.093,-2092.415,1
0.01657926,-9945.188,-1299.985,-2830.031,-7752.466,-997.5696,-2063.153,1
0.01657798,-9930.121,-1311.675,-2851.439,-7740.729,-1082.626,-2009.232,1
0.01657798,-9945.346,-1316.203,-2799.818,-7747.768,-1100.025,-1871.167,1
0.01658214,-9880.749,-1348.72,-2719.701,-7693.845,-1124.419,-1820.649,1
0.01657824,-9846.208,-1347.77,-2668.132,-7672.005,-1165.316,-1815.457,1
0.01657824,-9919.436,-1347.262,-2698.988,-7732.539,-1122.626,-1781.036,1
0.01658025,-9973.428,-1268.539,-2623.231,-7769.214,-1038.137,-1594.02,1
0.01657435,-9912.576,-1214.753,-2522.037,-7718.042,-871.4603,-1453.205,1
0.01657435,-9851.221,-1067.553,-2323.735,-7671.191,-714.0234,-1384.922,1
0.01657892,-9816.688,-973.5129,-2348.696,-7649.483,-640.4424,-1516.011,1
0.01658052,-9923.369,-737.903,-2500.261,-7735.665,-403.3903,-1672.573,1
0.01658052,-10087.81,-565.2936,-2609.545,-7861.05,-329.1523,-1814.608,1
0.01658097,-9860.65,-1194.539,-2750.275,-7673.61,-1149.502,-2929.159,1
0.016813,-9624.319,-1518.073,-3799.989,-7506.74,-1311.539,-2177.68,1
0.016813,-9645.031,-1594.663,-3061.729,-7519.201,-1119.076,-2640.987,1
0.01657947,-9698.724,-1490.055,-3358.674,-7556.647,-1053.824,-2731.325,1
0.01657997,-9746.862,-1443.529,-3246.454,-7602.854,-1045.897,-2389.666,1
0.01657997,-9934.359,-1366.903,-3134.973,-7737.44,-926.3102,-2042.961,1
0.0165764,-9907.368,-1270.68,-2834.769,-7725.293,-841.8475,-1599.91,1
0.0165764,-9814.688,-1100.981,-2564.479,-7645.407,-728.3032,-1266.94,1
0.01694842,-9725.959,-1035.932,-2417.392,-7586.67,-589.7133,-1421.91,1
0.01658074,-9754.559,-1068.409,-2450.837,-7604.502,-564.1489,-1881.104,1
0.01657746,-9774.055,-1213.871,-2752.368,-7615.239,-811.08,-2204.885,1
0.01658069,-9820.143,-1506.023,-3180.204,-7659.471,-1029.98,-2405.937,1
0.01658654,-9573.706,-1745.62,-2986.493,-7471.333,-1201.001,-2598.201,1
0.01658596,-9529.218,-1791.534,-3275.899,-7429.432,-1322.001,-2178.184,1
0.01658613,-9607.874,-1808.938,-3059.365,-7499.342,-1288.131,-2287.536,1
0.01658613,-9727.374,-1824.351,-3048.018,-7591.134,-1344.947,-2259.179,1
0.01658233,-9660.349,-1774.08,-3064.357,-7535.595,-1389.32,-1931.15,1
0.01658417,-9712.319,-1778.741,-2780.051,-7575.58,-1370.022,-1981.485,1
0.01658417,-9702.032,-1740.398,-2855.756,-7558.946,-1354.378,-2002.456,1
0.01658354,-9728.208,-1751.657,-2875.458,-7583.489,-1382.396,-1919.203,1
0.0165836,-9683.862,-1764.252,-2768.947,-7562.939,-1356.626,-1868.781,1
0.0165836,-9671.605,-1677.102,-2783.157,-7540.436,-1265.941,-1998.318,1
0.01658323,-9676.749,-1731.302,-2808.45,-7549,-1293.606,-2111.823,1
0.01658742,-9655.774,-1666.607,-2947.395,-7528.712,-1221.523,-2104.025,1
0.01658316,-9672.607,-1539.208,-2952.18,-7555.082,-1055.682,-2193.229,1
0.01658064,-9758.273,-1467.01,-3022.189,-7607.287,-978.3372,-2233.447,1
0.01658064,-9780.308,-1430.738,-2997.995,-7623.903,-892.1322,-2079.99,1
0.01657989,-9730.714,-1394.528,-2905.761,-7594.645,-754.0973,-1788.656,1
0.01658607,-9754.77,-1357.707,-2692.261,-7604.08,-743.555,-1502.007,1
0.01658115,-9703.143,-1291.077,-2491.185,-7564.542,-741.246,-1299.809,1
0.01658616,-9696.219,-1295.021,-2436.38,-7559.339,-801.4109,-1521.253,1
0.01658281,-9720.036,-1408.548,-2524.706,-7577.618,-981.7828,-1704.805,1
0.0165821,-9761.725,-1546.859,-2788.128,-7609.437,-1152.077,-1874.439,1
0.01658177,-9718.34,-1632.404,-2923.469,-7576.159,-1262.843,-2043.581,1
0.01658177,-9651.894,-1671.972,-2975.76,-7525.461,-1256.161,-2102.975,1
0.01658429,-9594.531,-1696.969,-2938.305,-7477.518,-1278.542,-2034.986,1
0.01658491,-9608.175,-1679.956,-2983.126,-7497.268,-1264.413,-2120.97,1
0.01658491,-9672.41,-1678.363,-3006.022,-7542.218,-1230.644,-2157.312,1
0.01658343,-9698.044,-1619.799,-3039.604,-7561.859,-1130.003,-2131.421,1
0.01658343,-9710.834,-1547.022,-3066.606,-7576.021,-1174.568,-2056.275,1
0.01658613,-9662.871,-1574.424,-3033.943,-7543.753,-1250.528,-2031.88,1
0.01658387,-9669.284,-1690.992,-3014.857,-7535.451,-1359.433,-2060.408,1
0.01658387,-9614.279,-1819.006,-3041.852,-7502.418,-1473.293,-2212.2,1
0.01658268,-9619.185,-1861.717,-3173.929,-7497.571,-1484.758,-2338.326,1
0.01659334,-9599.112,-1816.069,-3264.792,-7495.786,-1445.686,-2388.474,1
0.01657388,-9631.258,-1832.866,-3281.785,-7520.586,-1378.706,-2337.749,1
0.01659215,-9678.06,-1734.352,-3302.651,-7551.99,-1268.228,-2311.809,1
0.01657183,-9721.971,-1685.068,-3215.245,-7585.437,-1186.717,-2193.393,1
0.01658534,-9745.121,-1608.432,-3105.26,-7598.445,-1163.284,-2019.528,1
0.01658534,-9667.263,-1584.23,-3056.555,-7538.731,-1195.857,-1925.516,1
0.04974813,-9601.647,-1603.953,-3005.048,-7497.552,-1241.958,-1918.28,1
0.04974813,-9537.171,-1603.936,-3037.785,-7435.314,-1230.992,-2058.504,1
0.0165855,-9514.436,-1617.841,-3135.324,-7431.772,-1199.092,-2311.722,1
0.01658437,-9605.328,-1644.548,-3342.917,-7492.808,-1227.674,-2413.858,1
0.01658437,-9607.892,-1647.627,-3304.581,-7494.897,-1228.665,-2312.441,1
0.0165835,-9587.45,-1627.353,-3248.225,-7488.265,-1248.653,-2243.964,1
0.01658892,-9549.301,-1603.896,-3278.401,-7459.299,-1185.892,-2330.248,1
0.01658892,-9511.914,-1599.256,-3234.098,-7431.045,-1138.516,-2457.788,1
0.01658336,-9513.962,-1589.879,-3408.477,-7424.142,-1149.654,-2578.207,1
0.01658336,-9551.158,-1570.985,-3468.249,-7457.329,-1086.192,-2686.75,1
0.01658188,-9664.268,-1542.77,-3482.133,-7548.271,-1110.763,-2579.469,1
0.01658605,-9742.456,-1524.312,-3415.355,-7594.369,-1149.113,-2366.684,1
0.01658605,-9739.527,-1526.283,-3319.544,-7600.468,-1115.729,-2319.15,1
0.01658407,-9697.163,-1521.005,-3278.635,-7572.083,-1138.336,-2319.418,1
0.01641193,-9671.815,-1526.394,-3272.212,-7543.599,-1110.296,-2334.474,1
0.0167555,-9638.794,-1514.076,-3257.148,-7522.697,-1159.328,-2268.965,1
0.01658442,-9605.07,-1526.311,-3218.251,-7492.528,-1148.333,-2302.594,1
0.0165844,-9622.002,-1551.276,-3275.192,-7510.026,-1155.9,-2346.221,1
0.0165844,-9643.21,-1560.454,-3246.482,-7521.837,-1187.334,-2284.075,1
0.01659083,-9603.483,-1593.344,-3216.765,-7495.919,-1209.354,-2297.807,1
0.01658525,-9643.587,-1564.621,-3266.214,-7526.651,-1138.809,-2325.735,1
0.01658309,-9592.847,-1498.506,-3298.643,-7492.304,-1029.155,-2374.551,1
0.01658884,-9582.208,-1425.001,-3259.365,-7475.464,-1020.034,-2405.016,1
0.01658461,-9619.363,-1433.038,-3362.274,-7504.013,-1018.446,-2499.74,1
0.01658461,-9639.033,-1442.331,-3336.701,-7519.053,-1059.282,-2403.199,1
0.01658558,-9656.032,-1457.344,-3323.448,-7531.974,-1103.487,-2343.815,1
0.01658523,-9662.483,-1507.993,-3265.729,-7541.217,-1127.091,-2308.837,1
0.01658523,-9678.28,-1520.522,-3252.396,-7553.141,-1144.404,-2322.625,1
0.01658367,-9666.171,-1506.009,-3206.593,-7539.286,-1129.656,-2222.708,1
0.016587,-9684.255,-1546.786,-3157.135,-7557.417,-1068.004,-2245.768,1
0.01658076,-9733.405,-1460.862,-3233.974,-7585.9,-1073.093,-2202.667,1
0.01658481,-9656.279,-1471.637,-3210.182,-7526.707,-1059.379,-2169.048,1
0.01658481,-9616.505,-1454.704,-3159.403,-7496.356,-1043.333,-2137.907,1
0.01658403,-9507.027,-1395.049,-3167.16,-7417.382,-1002.758,-2242.696,1
0.01658592,-9583.402,-1393.252,-3202.23,-7471.802,-1015.953,-2361.376,1
0.01658609,-9598.705,-1436.98,-3281.89,-7483.691,-1083.766,-2363.064,1
0.01658609,-9644.501,-1460.19,-3321.653,-7523.207,-1066.947,-2425.811,1
0.01658432,-9653.634,-1430.763,-3405.748,-7534.537,-975.3103,-2395.635,1
0.01658313,-9648.899,-1389.743,-3298.987,-7526.383,-972.5729,-2264.584,1
0.01658313,-9628.182,-1343.74,-3207.546,-7519.362,-901.0054,-2223.074,1
0.01658389,-9619.479,-1295.114,-3192.721,-7499.424,-842.0545,-2287.688,1
0.01658324,-9640.836,-1236.389,-3277.83,-7524.65,-805.1983,-2411.265,1
0.01658324,-9674.503,-1276.69,-3310.095,-7550.301,-850.9787,-2371.061,1
0.01658493,-9691.748,-1311.28,-3331.115,-7563.294,-966.3379,-2330.084,1
0.01658373,-9620.596,-1343.335,-3322.82,-7508.764,-1022.035,-2371.49,1
0.01658373,-9640.963,-1389.3,-3325.478,-7524.389,-1084.257,-2416.217,1
0.01658483,-9614.146,-1422.286,-3341.671,-7503.911,-1099.778,-2372.599,1
0.01658478,-9626.262,-1414.998,-3330.203,-7513.255,-1069.8,-2464.996,1
0.01658616,-9678.877,-1431.711,-3376.183,-7553.456,-1009.239,-2508.859,1
0.01658616,-9732.746,-1421.812,-3369.328,-7589.977,-1015.174,-2367.391,1
0.01657945,-9683.905,-1403.025,-3351.698,-7552.351,-991.6293,-2313.083,1
0.01658489,-9701.496,-1361.771,-3305.72,-7570.09,-942.1729,-2325.103,1
0.01658343,-9645.093,-1361.811,-3280.688,-7535.714,-991.1772,-2257.354,1
0.01658343,-9636.53,-1419.375,-3228.018,-7515.917,-1042.135,-2310.223,1
0.01658535,-9605.96,-1423.891,-3266.556,-7492.673,-1046.262,-2377.838,1
0.01659033,-9634.9,-1415.81,-3288.413,-7519.394,-1077.328,-2361.283,1
0.01659033,-9662.066,-1431.641,-3367.67,-7540.186,-1089.777,-2389.642,1
0.0165845,-9636.939,-1466.408,-3372.509,-7525.384,-1032.446,-2334.656,1
0.0165844,-9657.772,-1363.636,-3259.397,-7532.461,-1002.867,-2255.688,1
0.0165819,-9614.42,-1385.459,-3232.509,-7494.912,-1042.108,-2262.629,1
0.0165819,-9574.752,-1371.193,-3214.909,-7473.648,-1019.031,-2319.594,1
0.01658894,-9595.312,-1351.393,-3309.702,-7485.178,-985.4433,-2410.157,1
0.01658164,-9619.829,-1390.129,-3325.636,-7508.493,-1011.046,-2370.585,0
0.01658164,-9590.096,-1414.196,-3340.605,-7481.413,-984.8577,-2347.249,0
0.01658238,-9613.848,-1368.7,-3299.359,-7499.708,-1016.078,-2343.077,0
0.01658449,-9596.897,-1368.294,-3300.597,-7482.395,-979.5449,-2436.802,0
0.0165841,-9648.026,-1331.599,-3389.863,-7525.979,-944.7449,-2508.052,0
0.0165841,-9618.152,-1377.251,-3335.285,-7511.943,-935.0008,-2388.862,0
0.01658462,-9588.584,-1346.707,-3364.67,-7484.952,-957.8297,-2448.861,0
0.01658462,-9626.771,-1333.343,-3353.813,-7514.233,-948.6251,-2508.144,0
0.01658203,-9665.778,-1404.05,-3375.559,-7539.548,-1024.118,-2467.052,0
0.01658464,-9671.693,-1452.84,-3406.947,-7539.468,-1082.542,-2415.126,0
0.01658464,-9637.121,-1427.398,-3297.188,-7517.35,-1099.594,-2304.284,0
0.01658273,-9623.488,-1452.315,-3287.97,-7511.356,-1134.645,-2347.958,0
0.01658345,-9590.123,-1475.4,-3311.647,-7481.481,-1126.658,-2405.83,0
0.01658345,-9591.789,-1453.359,-3322.717,-7482.913,-1072.884,-2472.433,0
0.01658354,-9596.353,-1372.109,-3361.339,-7486.533,-956.6752,-2401.201,0
0.01658225,-9616.959,-1308.894,-3270.154,-7502.365,-954.665,-2356.996,0
0.01658487,-9633.527,-1345.421,-3307.438,-7523.888,-984.0334,-2438.295,0
0.01658487,-9697.566,-1381.408,-3339.708,-7559.405,-986.218,-2501.913,0
0.01658378,-9704.525,-1359.914,-3401.428,-7577.731,-967.6881,-2432.158,0
0.01658224,-9716.02,-1362.523,-3315.664,-7577.338,-973.1718,-2372.017,0
0.0165854,-9692.142,-1376.833,-3322.921,-7554.385,-999.4606,-2399.838,0
0.0165833,-9644.485,-1379.268,-3320.996,-7522.278,-1016.582,-2379.293,0
0.01658048,-9646.52,-1362.449,-3277.654,-7523.86,-1013.696,-2388.663,0
0.01658301,-9655.505,-1383.531,-3302.704,-7530.736,-1029.815,-2385.771,0
0.01658404,-9671.829,-1327.13,-3344.887,-7552.041,-953.4716,-2373.738,0
0.01658404,-9618.245,-1294.407,-3332.36,-7506.61,-937.5961,-2375.817,0
0.01658322,-9661.141,-1303.637,-3242.036,-7535.049,-935.2673,-2337.643,0
0.01658481,-9656.285,-1336.482,-3236.392,-7526.871,-972.2402,-2285.726,0
0.01658172,-9664.416,-1318.358,-3205.925,-7537.5,-954.0625,-2280.04,0
0.01652755,-9663.642,-1357.781,-3178.766,-7541.292,-1005.084,-2235.371,0
0.01658202,-9699.727,-1397.895,-3170.619,-7573.218,-1059.742,-2224.711,0
0.01658202,-9713.998,-1435.041,-3145.29,-7579.488,-1084.791,-2173.777,0
0.01657658,-9673.15,-1440.541,-3167.894,-7543.661,-1083.085,-2243.735,0
0.01658447,-9654.554,-1425.587,-3191.935,-7520.578,-1064.136,-2310.085,0
0.01658031,-9690.125,-1395.332,-3270.565,-7556.661,-1039.434,-2322.318,0
0.0165823,-9691.065,-1419.538,-3237.747,-7557.284,-1042.875,-2240.686,0
0.01658663,-9634.951,-1362.214,-3225.282,-7509.93,-990.126,-2289.786,0
0.0165828,-9618.788,-1429.412,-3240.802,-7502.17,-1008.587,-2315.556,0
0.01658147,-9665.105,-1381.433,-3189.61,-7533.276,-986.5677,-2314.675,0
0.01658147,-9646.821,-1374.634,-3226.696,-7523.745,-976.7554,-2280.482,0
0.01657526,-9673.923,-1368.348,-3222.753,-7548.919,-976.7781,-2300.815,0
0.01658179,-9672.082,-1385.103,-3257.188,-7538.586,-1008.514,-2317.716,0
0.01658179,-9639.767,-1387.241,-3278.905,-7518.32,-1022.327,-2309.839,0
0.01658252,-9633.202,-1397.775,-3246.179,-7508.965,-1027.004,-2293.897,0
0.01658532,-9604.002,-1395.745,-3253.928,-7491.219,-1010.707,-2320.597,0
0.01658426,-9591.735,-1388.784,-3217.807,-7482.057,-1017.559,-2296.286,0
0.01658426,-9571.666,-1428.353,-3270.171,-7466.964,-1026.973,-2323.868,0
0.01658472,-9604.717,-1440.971,-3297.824,-7501.333,-1040.637,-2372.288,0
0.01658199,-9620.062,-1490.031,-3263.723,-7508.715,-1102.846,-2255.433,0
0.01658271,-9639.051,-1513.985,-3184.324,-7509.958,-1152.589,-2215.144,0
0.01658271,-9601.223,-1534.915,-3213.666,-7489.939,-1171.1,-2279.709,0
0.01658249,-9604.853,-1544.084,-3218.901,-7488.398,-1164.263,-2331.722,0
0.01658368,-9630.368,-1567.136,-3243.18,-7516.839,-1173.895,-2349.665,0
0.01658368,-9649.901,-1558.467,-3251.249,-7518.429,-1170.096,-2315.821,0
0.01658208,-9611.165,-1522.983,-3262.946,-7488.792,-1144.526,-2310.297,0
0.01658463,-9577.486,-1535.272,-3250.901,-7467.602,-1120.427,-2379.976,0
0.01658555,-9683.328,-1536.558,-3335.079,-7553.021,-1151.683,-2444.048,0
0.01658555,-9682.01,-1583.498,-3368.116,-7551.775,-1232.967,-2270.761,0
0.0165832,-9593.318,-1587.603,-3288.486,-7483.865,-1232.28,-2233.959,0
0.0165821,-9569.178,-1613.186,-3225.016,-7456.73,-1205.659,-2292.565,0
0.01657722,-9556.42,-1587.952,-3301.053,-7447.241,-1168.829,-2411.672,0
0.01659162,-9585.998,-1576.138,-3292.226,-7478.951,-1155.716,-2399.919,0
0.01658439,-9622.578,-1586.997,-3330.622,-7506.981,-1175.775,-2403.52,0
0.01658461,-9600.789,-1560.055,-3334.176,-7485.874,-1135.076,-2453.576,0
0.01658461,-9630.104,-1534.407,-3390.934,-7512.735,-1105.504,-2483.226,0
0.01658377,-9655.024,-1525.163,-3372.09,-7536.114,-1114.888,-2394.646,0
0.01658632,-9653.911,-1554.597,-3308.452,-7530.662,-1160.153,-2300.697,0
0.01658632,-9599.738,-1569.225,-3327.503,-7480.31,-1145.477,-2366.892,0
0.01658261,-9545.785,-1561.231,-3345.994,-7443.662,-1103.297,-2424.146,0
0.01658308,-9568.99,-1554.461,-3339.744,-7457.233,-1106.206,-2428.567,0
0.01658308,-9572.923,-1503.565,-3360.646,-7464.845,-1088.729,-2406.659,0
0.01658276,-9548.982,-1530.265,-3354.768,-7455.567,-1084.927,-2465.146,0
0.01658479,-9585.285,-1538.56,-3385.97,-7479.037,-1112.429,-2495.893,0
0.0165838,-9577.819,-1557.433,-3430.163,-7477.81,-1141.819,-2485.214,0
0.0165838,-9605.741,-1592.038,-3370.597,-7494.747,-1159.568,-2427.155,0
0.01658193,-9566.592,-1574.414,-3358.156,-7464.815,-1119.62,-2431.124,0
0.01666125,-9623.548,-1589.206,-3378.839,-7508.398,-1144.444,-2478.407,0
0.01658092,-9680.053,-1602.547,-3329.511,-7542.544,-1199.927,-2377.115,0
0.01658505,-9679.287,-1634.784,-3270.93,-7546.085,-1247.815,-2289.331,0
0.0165845,-9632.96,-1680.99,-3236.311,-7514.874,-1289.324,-2229.007,0
0.01658401,-9581.281,-1695.569,-3188.545,-7466.483,-1278.295,-2208.936,0
0.01658221,-9626.36,-1678.84,-3208.244,-7501.04,-1222.374,-2283.925,0
0.01658325,-9617.325,-1654.551,-3211.804,-7498.531,-1191.917,-2259.903,0
0.01658325,-9573.293,-1618.902,-3191.622,-7473.77,-1155.707,-2255.979,0
0.01658286,-9606.546,-1624.449,-3255.522,-7499.289,-1148.346,-2294.642,0
0.01658534,-9591.737,-1632.146,-3238.751,-7487.98,-1171.706,-2302.48,0
0.0165829,-9575.378,-1596.82,-3243.801,-7462.25,-1171.294,-2293.188,0
0.01658371,-9589.059,-1634.216,-3220.219,-7481.694,-1194.344,-2312.163,0
0.01658371,-9566.334,-1610.78,-3265.907,-7464.399,-1148.114,-2392.869,0
0.01658392,-9560.986,-1604.26,-3328.643,-7469.312,-1120.499,-2512.327,0
0.01658442,-9609.186,-1558.892,-3404.029,-7497.359,-1076.038,-2570.436,0
0.01658442,-9664.94,-1532.942,-3426.654,-7539.858,-1081.199,-2493.046,0
0.01658283,-9669.504,-1573.8,-3335.781,-7543.075,-1111.054,-2392.929,0
0.01658608,-9663.943,-1583.514,-3300.02,-7534.145,-1144.089,-2307.663,0
0.01658409,-9665.761,-1596.655,-3218.316,-7544.199,-1168.273,-2216.13,0
0.01658482,-9617.857,-1616.223,-3186.475,-7498.571,-1175.123,-2236.685,0
0.01658482,-9586.27,-1659.02,-3208.293,-7470.053,-1209.07,-2276.006,0
0.0165816,-9596.723,-1678.09,-3214.368,-7491.479,-1222.257,-2262.407,0
0.0165816,-9609.875,-1674.572,-3235.296,-7492.723,-1222.869,-2256.806,0
0.01658431,-9598.672,-1648.174,-3195.81,-7479.768,-1200.239,-2244.075,0
0.01658434,-9624.285,-1659.513,-3193.053,-7494.967,-1233.691,-2177.489,0
0.01657348,-9603.777,-1683.792,-3119.275,-7492.587,-1251.733,-2126.05,0
0.01657348,-9595.343,-1692.877,-3122.693,-7468.456,-1239.829,-2179.455,0
0.01657306,-9526.013,-1672.424,-3133.063,-7433.361,-1228.404,-2200.026,0
0.01657048,-9527.17,-1683.459,-3204.575,-7443.422,-1225.877,-2281.55,0
0.01657048,-9550.654,-1694.658,-3223.77,-7443.88,-1232.889,-2303.934,0
0.0165699,-9540.115,-1698.735,-3251.871,-7436.013,-1269.062,-2268.775,0
0.0165699,-9530.978,-1686.293,-3229.297,-7433.667,-1241.041,-2259.219,0
0.01656888,-9528.288,-1680.209,-3256.321,-7431.816,-1212.727,-2355.731,0
0.01656888,-9556.981,-1648.519,-3272.322,-7453.908,-1223.117,-2353.268,0
0.0165689,-9591.685,-1700.796,-3291.195,-7484.887,-1245.583,-2375.986,0
0.01657239,-9639.681,-1705.651,-3351.44,-7517.002,-1248.028,-2413.606,0
0.01657239,-9589.778,-1659.726,-3346.47,-7483.087,-1217.806,-2358.896,0
0.01657436,-9570.409,-1673.174,-3333.042,-7463.826,-1199.298,-2391.252,0
0.01657367,-9591.157,-1650.181,-3345.279,-7479.708,-1155.199,-2419.371,0
0.01657367,-9545.669,-1608.854,-3369.726,-7449.376,-1148.761,-2405.244,0
0.01681443,-9553.599,-1631.9,-3356.309,-7451.126,-1159.14,-2397.41,0
0.01657299,-9545.067,-1661.069,-3325.645,-7453.571,-1199.571,-2349.076,0
0.0165704,-9585.814,-1674.296,-3263.078,-7471.476,-1219.909,-2270.225,0
0.01657216,-9554.062,-1666.52,-3268.32,-7447.197,-1195.615,-2308.535,0
0.01657251,-9530.023,-1645.704,-3284.487,-7428.934,-1200.775,-2324.042,0
0.01657193,-9541.696,-1658.552,-3296.401,-7442.443,-1212.553,-2346.19,0
0.01657193,-9583.159,-1693.024,-3295.591,-7474.188,-1264.876,-2350.239,0
0.01657141,-9586.339,-1720.677,-3299.753,-7476.541,-1305.712,-2317.368,0
0.01657216,-9576.979,-1762.664,-3321.138,-7469.317,-1319.974,-2393.262,0
0.01655495,-9571.412,-1757.627,-3344.704,-7469.466,-1274.44,-2452.324,0
0.01656992,-9600.31,-1638.288,-3288.742,-7491.504,-1190.282,-2356.909,0
0.01657248,-9600.432,-1620.594,-3326.481,-7487.04,-1190.829,-2332.281,0
0.01656898,-9583.609,-1691.037,-3240.037,-7478.526,-1226.541,-2296.474,0
0.01656898,-9621.363,-1682.895,-3266.065,-7498.444,-1231.093,-2309.949,0
0.01657198,-9569.979,-1667.525,-3283.179,-7459.063,-1213.245,-2314.57,0
0.0165705,-9517.727,-1645.051,-3315.605,-7428.096,-1178.14,-2344.109,0
0.0165705,-9546.326,-1634.971,-3249.53,-7445.726,-1186.682,-2330.72,0
0.01656901,-9598.71,-1626.168,-3273.741,-7490.247,-1199.229,-2313.587,0
0.01656912,-9592.795,-1633.697,-3259.607,-7490.046,-1207.598,-2258.298,0
0.01656942,-9577.034,-1657.916,-3219.734,-7473.493,-1219.242,-2301.486,0
0.01657182,-9615.307,-1688.982,-3270.734,-7502.696,-1249.874,-2351.966,0
0.01657182,-9608.699,-1663.547,-3290.503,-7493.064,-1237.244,-2342.083,0
0.01656731,-9563.549,-1662.694,-3316.104,-7454.065,-1231.565,-2345.499,0
0.01657232,-9549.292,-1679.37,-3320.812,-7447.705,-1231.255,-2370.854,0
0.01657232,-9558.956,-1693.476,-3294.625,-7455.206,-1236.983,-2367.588,0
0.01656737,-9553.7,-1698.872,-3315.292,-7460.131,-1263.997,-2350.316,0
0.01656907,-9523.2,-1685.052,-3342.966,-7428.053,-1238.062,-2414.836,0
0.01656896,-9557.559,-1656.279,-3354.407,-7458.907,-1185.584,-2460.402,0
0.01657128,-9615.56,-1653.904,-3363.419,-7498.782,-1215.756,-2414.561,0
0.01656897,-9579.43,-1664.881,-3408.923,-7462.157,-1233.885,-2420.795,0
0.01656917,-9589.046,-1686.504,-3376.785,-7473.924,-1242.068,-2425.009,0
0.01657003,-9559.229,-1676.072,-3374.219,-7451.113,-1237.354,-2415.61,0
0.01660233,-9573.962,-1681.288,-3314.757,-7471.29,-1237.976,-2383.051,0
0.0165797,-9577.209,-1678.395,-3351.898,-7469.323,-1245.972,-2408.11,0
0.01657826,-9577.901,-1677.817,-3334.416,-7469.835,-1216.954,-2410.169,0
0.01657826,-9571.63,-1678.885,-3360.298,-7465.031,-1203.666,-2423.493,0
0.01657883,-9647.723,-1661.004,-3347.087,-7527.555,-1210.281,-2404.13,0
0.01657774,-9596.691,-1658.383,-3345.498,-7479.445,-1215.823,-2387.076,0
0.01657936,-9611.873,-1654.925,-3310.278,-7486.557,-1184.708,-2385.388,0
0.01657936,-9615.009,-1664.464,-3341.189,-7493.293,-1217.591,-2395.763,0
0.0165777,-9591.257,-1661.964,-3350.215,-7470.631,-1235.915,-2363.302,0
0.01657481,-9572.809,-1690.372,-3263.357,-7465.422,-1248.991,-2333.314,0
0.01657598,-9574.424,-1721.317,-3245.123,-7471.147,-1282.75,-2321.892,0
0.01658028,-9603.219,-1745.805,-3237.818,-7484.303,-1297.049,-2310.26,0
0.01657817,-9573.351,-1714.343,-3291.289,-7470.31,-1272.736,-2345.027,0
0.01658362,-9546.066,-1692.251,-3275.915,-7449.527,-1253.514,-2369.945,0
0.01657874,-9589.019,-1730.667,-3287.305,-7478.026,-1287.507,-2330.235,0
0.01657751,-9558.745,-1717.719,-3303.554,-7459.322,-1277.71,-2318.387,0
0.01657746,-9529.001,-1695.687,-3286.833,-7427.837,-1263.817,-2345.049,0
0.01657746,-9570.474,-1706.065,-3323.933,-7459.701,-1262.015,-2387.557,0
0.01657714,-9576.065,-1701.315,-3286.566,-7468.426,-1237.572,-2361.964,0
0.01657854,-9591.599,-1682.625,-3319.07,-7471.412,-1218.069,-2370.468,0
0.01658093,-9580.541,-1672.234,-3317.765,-7476.217,-1217.166,-2373.843,0
0.01657567,-9563.141,-1659.482,-3310.318,-7454.042,-1211.704,-2372.256,0
0.01657567,-9553.98,-1659.884,-3281.374,-7451.542,-1198.585,-2377.272,0
0.01657834,-9607.538,-1638.927,-3347.275,-7492.502,-1193.824,-2391.593,0
0.01657834,-9592.23,-1650.997,-3328.168,-7476.251,-1224.281,-2362.178,0
0.0165777,-9571.978,-1660.002,-3322.231,-7465.171,-1221.818,-2392.235,0
0.01657938,-9584.565,-1675.903,-3378.394,-7479.232,-1249.523,-2420.9,0
0.01658027,-9606.369,-1698.177,-3344.682,-7486.974,-1269.805,-2379.125,0
0.01657704,-9601.114,-1702.49,-3350.294,-7491.727,-1271.857,-2351.773,0
0.01658117,-9594.691,-1710.568,-3310.511,-7482.306,-1256.844,-2375.406,0
0.01657768,-9559.737,-1703.398,-3347.466,-7446.719,-1259.301,-2394.5,0
0.01657804,-9583.569,-1684.146,-3352.012,-7473.889,-1248.127,-2388.732,0
0.0165865,-9541.22,-1681.123,-3335.32,-7437.123,-1242.213,-2397.232,0
0.01658027,-9568.633,-1683.258,-3320.718,-7467.075,-1243.303,-2381.041,0
0.01657626,-9543.954,-1700.716,-3331.6,-7452.69,-1264.945,-2402.102,0
0.01657708,-9600.626,-1655.165,-3324.402,-7500.484,-1219.57,-2400.428,0
0.01657708,-9596.09,-1647.143,-3345.242,-7479.162,-1219.944,-2365.067,0
0.01658013,-9585.236,-1647.567,-3325.928,-7475.246,-1202.118,-2392.151,0
0.01658013,-9579.996,-1657.345,-3282.398,-7480.084,-1218.321,-2351.986,0
0.01658048,-9611.374,-1672.053,-3275.088,-7495.152,-1241.261,-2341.314,0
0.01657855,-9576.257,-1674.097,-3319.186,-7472.659,-1230.071,-2357.994,0
0.01657893,-9574.563,-1669.971,-3329.784,-7471.384,-1221.948,-2406.558,0
0.01657887,-9603.522,-1680.408,-3291.536,-7493.512,-1234.383,-2338.217,0
0.01657887,-9584.92,-1674.402,-3248.227,-7474.791,-1234.766,-2296.721,0
0.01657945,-9543.998,-1687.986,-3284.366,-7439.124,-1238.762,-2374.198,0
0.01657945,-9567.825,-1662.199,-3339.293,-7448.616,-1229.839,-2408.957,0
0.01658056,-9558.558,-1670.917,-3354.655,-7454.914,-1244.286,-2402.239,0
0.0165759,-9564.566,-1699.686,-3337.15,-7455.144,-1269.553,-2376.803,0
0.01658063,-9550.397,-1713.354,-3348.637,-7439.95,-1263.79,-2388.565,0
0.01657827,-9545.528,-1713.23,-3327.628,-7449.639,-1272.978,-2382.124,0
0.01657827,-9554.148,-1727.872,-3335.96,-7443.013,-1287.06,-2386.517,0
0.01657928,-9558.017,-1720.731,-3329.298,-7454.903,-1280.869,-2394.949,0
0.0165797,-9583.772,-1687.041,-3310.22,-7479.026,-1261.107,-2373.688,0
0.0165797,-9601.051,-1687.411,-3291.769,-7478.842,-1258.89,-2370.724,0
0.01658154,-9559.807,-1682.387,-3349.409,-7464.977,-1255.052,-2397.08,0
0.01657879,-9560.293,-1694.976,-3328.487,-7452.076,-1253.601,-2369.648,0
0.01657879,-9565.975,-1708.257,-3301.954,-7465.324,-1259.022,-2374.054,0
0.01658042,-9571.688,-1691.31,-3300.956,-7465.255,-1257.116,-2337.897,0
0.01658023,-9576.056,-1699.818,-3282.273,-7473.009,-1248.93,-2349.526,0
0.01658023,-9562.014,-1671.393,-3326.767,-7462.254,-1240.801,-2375.866,0
0.01657837,-9561.556,-1649.74,-3315.879,-7457.495,-1228.228,-2363.919,0
0.0165787,-9593.394,-1667.959,-3307.858,-7472.965,-1229.26,-2350.059,0
0.0165787,-9595.19,-1673.272,-3307.284,-7478.693,-1221.771,-2376.273,0
0.01657899,-9583.979,-1652.116,-3321.816,-7470.052,-1212.351,-2392.627,0
0.01657701,-9556.28,-1645.051,-3323.188,-7453.31,-1227.038,-2351.233,0
0.01657701,-9531.348,-1667.487,-3330.298,-7438.777,-1249.255,-2371.645,0
0.01658059,-9490.465,-1686.712,-3293.823,-7398.854,-1248.972,-2370.356,0
0.01657703,-9527.797,-1682.02,-3292.888,-7427.658,-1242.579,-2376.061,0
0.01657972,-9557.743,-1680.433,-3316.125,-7455.078,-1245.232,-2372.229,0
0.01657972,-9543.279,-1710.144,-3334.228,-7439.596,-1273.712,-2358.064,0
0.01661732,-9573.583,-1705.216,-3298.992,-7476.078,-1251.532,-2384.88,0
0.01658305,-9550.457,-1675.979,-3350.543,-7453.9,-1227.488,-2395.981,0
0.01658361,-9541.244,-1674.247,-3356.686,-7442.451,-1224.286,-2402.751,0
0.01658269,-9606.762,-1694.019,-3332.91,-7492.519,-1254.673,-2371.438,0
0.01658484,-9593.929,-1683.994,-3317.784,-7491.386,-1244.752,-2365.143,0
0.01658202,-9577.395,-1687.471,-3276.444,-7469.754,-1241.585,-2348.025,0
0.01658202,-9579.612,-1697.227,-3324.434,-7466.967,-1252.905,-2388.415,0
0.01658843,-9553.063,-1689.225,-3312.102,-7446.659,-1256.717,-2369.534,0
0.01658506,-9551.982,-1682.135,-3319.825,-7450.331,-1248.223,-2368.805,0
0.01658518,-9559.279,-1653.477,-3302.656,-7460.383,-1218.872,-2381.462,0
0.01658518,-9583.602,-1663.265,-3342.271,-7478.957,-1234.226,-2385.127,0
0.0165836,-9587.763,-1685.055,-3364.933,-7477.616,-1248.425,-2397.913,0
0.01658498,-9589.972,-1668.205,-3365.704,-7479.219,-1237.753,-2414.97,0
0.01658227,-9602.19,-1660.073,-3351.994,-7488.464,-1229.645,-2402.948,0
0.01658227,-9584.771,-1665.015,-3367.057,-7470.617,-1229.608,-2400.224,0
0.01658439,-9598.769,-1671.687,-3333.833,-7481.272,-1243.337,-2385.828,0
0.01658338,-9582.471,-1681.092,-3288.471,-7473.182,-1248.024,-2352.866,0
0.01658228,-9597.305,-1674.678,-3305.51,-7488.918,-1243.652,-2366.875,0
0.01658228,-9583.786,-1692.375,-3280.878,-7469.653,-1259.372,-2327.941,0
0.01649462,-9551.308,-1683.284,-3291.176,-7449.29,-1245.71,-2356.235,0
0.01658362,-9514.786,-1668.372,-3331.787,-7412.662,-1230.433,-2384.295,0
0.01658196,-9524.68,-1673.345,-3306.688,-7424.905,-1241.756,-2376.992,0
0.01658196,-9536.464,-1696.425,-3378.666,-7438.515,-1271.291,-2397.615,0
0.01658246,-9530.382,-1702.31,-3341.092,-7438.411,-1257.951,-2376.232,0
0.01658327,-9564.76,-1721.923,-3305.853,-7455.899,-1274.782,-2361.21,1
0.01648744,-9575.919,-1704.742,-3312.16,-7464.402,-1269.827,-2345.333,1
0.01658275,-9586.803,-1705.288,-3321.15,-7477.085,-1253.265,-2378.044,1
0.01658286,-9546.556,-1701.426,-3345.079,-7450.693,-1263.57,-2384.946,1
0.01658367,-9518.65,-1707.048,-3315.943,-7420.584,-1284.704,-2367.894,1
0.01658246,-9533.446,-1749.707,-3333.94,-7440.917,-1299.16,-2401.605,1
0.01658246,-9592.303,-1708.48,-3348.587,-7477.059,-1261.659,-2407.439,1
0.01658042,-9618.726,-1722.947,-3361.79,-7501.524,-1280.436,-2387.765,1
0.01658622,-9562.99,-1682.945,-3304.534,-7449.887,-1244.547,-2368.62,1
0.01658622,-9529.02,-1692.111,-3314.335,-7423.983,-1245.812,-2390.31,1
0.01658056,-9551.446,-1705.32,-3340.92,-7450.119,-1257.608,-2373.773,1
0.01658637,-9544.904,-1723.207,-3323.811,-7440.726,-1280.393,-2365.408,1
0.01657948,-9580.983,-1703.994,-3331.853,-7468.33,-1264.247,-2385.99,1
0.01658284,-9597.602,-1684.975,-3326.537,-7480.932,-1242.796,-2398.801,1
0.01658592,-9588.273,-1677.498,-3356.244,-7478.106,-1245.201,-2395.68,1
0.01658205,-9583.793,-1668.349,-3326.063,-7461.297,-1231.099,-2383.906,1
0.01658571,-9535.433,-1645.497,-3344.75,-7433.207,-1213.78,-2390.978,1
0.01659683,-9568.346,-1680.081,-3364.517,-7467.324,-1242.87,-2400.757,1
0.01658342,-9563.419,-1702.395,-3328.687,-7467.966,-1263.541,-2382.994,1
0.01658695,-9558.354,-1664.986,-3326.186,-7455.22,-1234.095,-2393.014,1
0.01658292,-9569.668,-1674.663,-3338.292,-7468.312,-1236.312,-2384.254,1
0.01658293,-9629.511,-1691.93,-3324.932,-7505.097,-1252.873,-2378.206,1
0.01658434,-9605.358,-1683.537,-3312.587,-7481.992,-1252.813,-2368.543,1
0.01658434,-9572.042,-1675.734,-3311.921,-7456.452,-1239.653,-2370.055,1
0.01658136,-9579.106,-1681.214,-3340.848,-7461.875,-1234.463,-2409.377,1
0.01658672,-9604.308,-1636.292,-3386.375,-7481.113,-1211.013,-2447.089,1
0.01657443,-9564.653,-1663.95,-3401.683,-7455.178,-1230.092,-2439.406,1
0.0165912,-9538.208,-1669.761,-3349.012,-7430.618,-1253.699,-2359.906,1
0.01658348,-9529.544,-1676.747,-3295.97,-7433.027,-1263.175,-2325.027,1
0.01658348,-9522.692,-1683.955,-3250.699,-7427.954,-1247.86,-2331.715,1
0.01658295,-9537.816,-1655.589,-3283.84,-7435.233,-1214.831,-2352.888,1
0.01658233,-9533.524,-1666.978,-3269.199,-7423.194,-1233.61,-2313.619,1
0.01658622,-9548.811,-1678.072,-3284.826,-7439.418,-1246.269,-2344.362,1
0.01658622,-9567.925,-1667.803,-3296.315,-7458.482,-1239.519,-2361.015,1
0.01658176,-9543.701,-1662.656,-3282.535,-7439.946,-1251.673,-2341.963,1
0.01658176,-9521.809,-1685.256,-3309.062,-7436.582,-1268.371,-2385.041,1
0.0165849,-9555.896,-1687.983,-3312.087,-7453.84,-1271.753,-2398.104,1
0.01658452,-9572.412,-1702.664,-3316.468,-7461.995,-1269.854,-2404.418,1
0.01658339,-9586.335,-1675.618,-3332.283,-7472.549,-1260.735,-2347.713,1
0.0165833,-9571.028,-1673.05,-3295.523,-7465.179,-1258.204,-2351.238,1
0.01658381,-9590.805,-1653.383,-3258.425,-7484.651,-1228.787,-2352.357,1
0.01658381,-9616.649,-1665.311,-3294.888,-7495.381,-1243.535,-2368.152,1
0.01658464,-9595.851,-1684.395,-3361.285,-7479.305,-1255.644,-2408.051,1
0.01658376,-9575.684,-1678.119,-3388.286,-7463.813,-1245.001,-2459.744,1
0.01658567,-9591.507,-1631.2,-3386.493,-7480.313,-1184.266,-2448.873,1
0.01705229,-9611.811,-1577.195,-3336.867,-7482.439,-1179.563,-2402.388,1
0.01658662,-9578.972,-1616.049,-3322.265,-7466.116,-1215.376,-2388.971,1
0.01658662,-9569.797,-1652.481,-3341.916,-7472.407,-1240.278,-2403.707,1
0.01658347,-9565.758,-1670.431,-3287.771,-7460.467,-1266.71,-2343.758,1
0.01658318,-9584.354,-1699.421,-3294.139,-7470.271,-1264.916,-2368.197,1
0.01658177,-9581.863,-1677.947,-3295.237,-7472.777,-1248.65,-2354.737,1
0.01658177,-9598.159,-1683.161,-3306.106,-7476.33,-1259.778,-2349.306,1
0.01658576,-9621.862,-1651.713,-3272.138,-7503.223,-1248.153,-2348.954,1
0.01658576,-9566.946,-1680.496,-3300.84,-7456.707,-1274.297,-2369.082,1
0.01658211,-9597.874,-1673.818,-3305.211,-7480.386,-1247.771,-2402.919,1
0.01658282,-9636.996,-1673.429,-3312.23,-7501.332,-1255.21,-2399.084,1
0.01658282,-9589.7,-1653.611,-3311.452,-7478.346,-1237.004,-2412.006,1
0.01658246,-9627.482,-1679.609,-3363.363,-7511.61,-1248.595,-2480.082,1
0.01658194,-9652.782,-1684.018,-3376.366,-7513.036,-1235.034,-2435.948,1
0.01658194,-9593.84,-1627.098,-3388.865,-7481.137,-1179.945,-2391.538,1
0.01658497,-9584.943,-1596.246,-3385.745,-7474.364,-1195.128,-2391.247,1
0.01658371,-9582.025,-1614.775,-3330.021,-7467.755,-1177.388,-2408.705,1
0.01658371,-9601.406,-1596.99,-3300.169,-7478.183,-1180.646,-2342.423,1
0.01658426,-9575.043,-1593.075,-3302.803,-7462.484,-1175.943,-2328.845,1
0.01659043,-9550.927,-1605.214,-3267.141,-7448.593,-1183.211,-2354.171,1
0.01659043,-9554.859,-1582.138,-3338.811,-7451.753,-1167.688,-2404.645,1
0.01658374,-9587.324,-1617.013,-3320.868,-7472.229,-1198.683,-2392.8,1
0.01657894,-9576.412,-1618.645,-3315.107,-7463.897,-1211.613,-2337.431,1
0.01658117,-9555.673,-1621.914,-3285.029,-7452.538,-1197.229,-2359.739,1
0.01658433,-9601.368,-1628.666,-3272.332,-7474.229,-1201.59,-2387.836,1
0.0165851,-9685.499,-1626.476,-3299.464,-7547.258,-1200.76,-2308.089,1
0.01658248,-9649.058,-1587.084,-3245.248,-7519.053,-1130.825,-2335.3,1
0.01658247,-9621.704,-1532.696,-3209.82,-7497.968,-1073.224,-2269.429,1
0.01658364,-9594.398,-1489.09,-3238.482,-7472.615,-1088.322,-2270.403,1
0.01658364,-9552.877,-1533.284,-3188.599,-7445.397,-1117.826,-2265.595,1
0.01658451,-9574.333,-1574.99,-3214.139,-7466.396,-1159.899,-2307.364,1
0.01658333,-9574.982,-1556.304,-3226.397,-7466.967,-1163.692,-2331.603,1
0.01658232,-9623.125,-1551.54,-3253.927,-7499.349,-1161.521,-2286.251,1
0.01657962,-9601.269,-1562.154,-3206.05,-7491.412,-1155.308,-2283.073,1
0.01657962,-9628.383,-1561.901,-3204.966,-7503.206,-1156.568,-2298.26,1
0.01658117,-9611.808,-1541.88,-3254.442,-7490.435,-1145.499,-2318.196,1
0.01658117,-9592.014,-1549.041,-3274.142,-7479.713,-1144.992,-2364.81,1
0.01658641,-9594.912,-1535.457,-3256.507,-7481.954,-1103.42,-2384.717,1
0.01658163,-9637.631,-1501.627,-3235.049,-7501.282,-1097.465,-2310.32,1
0.01658163,-9595.803,-1521.722,-3250.189,-7482.526,-1128.859,-2295.658,1
0.01658278,-9600.298,-1553.648,-3250.128,-7477.117,-1148.091,-2351.362,1
0.01658278,-9631.63,-1535.141,-3263.923,-7509.918,-1135.074,-2331.653,1
0.01658,-9647.756,-1542.973,-3256.555,-7513.246,-1119.796,-2303.842,1
0.01658434,-9637.961,-1523.604,-3300.675,-7518.914,-1111.461,-2372.743,1
0.01658434,-9653.247,-1496.313,-3301.151,-7526.026,-1082.728,-2352.964,1
0.01658356,-9603.134,-1470.133,-3257.057,-7474.321,-1111.174,-2313.076,1
0.01657925,-9626.772,-1538.658,-3226.579,-7514.601,-1144.575,-2308.704,1
0.01657925,-9630.955,-1496.618,-3212.289,-7500,-1054.841,-2326.728,1
0.01657982,-9662.939,-1469.17,-3318.148,-7533.239,-1036.085,-2363.047,1
0.01658112,-9649.431,-1458.48,-3354.595,-7522.751,-1048.472,-2386.224,1
0.01658112,-9619.134,-1451.653,-3280.055,-7490.658,-1043.55,-2306.574,1
0.01657695,-9582.419,-1455.938,-3256.789,-7467.107,-1057.904,-2314.069,1
0.01657897,-9596.691,-1418.409,-3248.209,-7478.17,-959.3994,-2420.042,1
0.01657835,-9651.792,-1356.795,-3252.756,-7533.618,-1002.035,-2370.465,1
0.01657835,-9597.703,-1314.609,-3304.494,-7483.313,-926.8223,-2406.88,1
0.01658016,-9598.052,-1236.688,-3331.037,-7479.236,-893.2236,-2408.089,1
0.01658002,-9596.131,-1292.726,-3337.232,-7486.719,-936.8431,-2398.439,1
0.01658002,-9605.252,-1346.634,-3267.575,-7480.453,-986.2832,-2374.129,1
0.01630538,-9644.822,-1388.081,-3273.341,-7524.004,-1030.914,-2359.705,1
0.01685544,-9652.548,-1382.415,-3305.529,-7512.042,-1027.181,-2338.882,1
0.01657699,-9662.104,-1399.554,-3338.331,-7528.09,-1033.394,-2379.432,1
0.01658209,-9680.876,-1389.908,-3280.587,-7551.127,-993.0718,-2310.825,1
0.01657892,-9697.166,-1350.286,-3234.845,-7563.333,-999.7719,-2254.719,1
0.01658029,-9665.241,-1381.072,-3225.482,-7529.836,-1020.391,-2261.486,1
0.01658325,-9657.219,-1368.097,-3252.041,-7514.755,-958.7336,-2379.279,1
0.01658325,-9622.372,-1333.282,-3345.512,-7492.554,-941.4967,-2503.759,1
0.016574,-9617.658,-1337.007,-3398.183,-7493.481,-931.6133,-2534.308,1
0.01658344,-9635.082,-1230.026,-3437.513,-7511.304,-822.8062,-2607.448,1
0.01657765,-9628.794,-1206.182,-3386.3,-7502.078,-859.8789,-2489.714,1
0.01658035,-9662.759,-1228.561,-3327.9,-7528.043,-905.2599,-2363.632,1
0.01658035,-9699.155,-1197.253,-3209.297,-7551.298,-902.2452,-2260.172,1
0.01657934,-9665.775,-1256.318,-3199.357,-7530.034,-930.3035,-2237.36,1
0.01657726,-9680.435,-1218.178,-3195.791,-7541.151,-908.0239,-2236.318,1
0.01657726,-9689.927,-1215.835,-3176.712,-7548.275,-877.1754,-2217.014,1
0.01657474,-9694.121,-1204.759,-3141.464,-7560.195,-885.4003,-2146.622,1
0.01658173,-9701.966,-1181.472,-3087.22,-7557.157,-864.3315,-2113.139,1
0.01658173,-9706.121,-1212.26,-3086.837,-7564.604,-887.6494,-2160.761,1
0.01657953,-9669.552,-1199.321,-3167.18,-7536.525,-903.4656,-2172.321,1
0.01657953,-9644.722,-1227.134,-3164.24,-7513.134,-915.4609,-2277.628,1
0.01657837,-9625.809,-1246.37,-3221.717,-7503.228,-925.7891,-2348.468,1
0.01652824,-9653.833,-1217.725,-3289.051,-7507.045,-921.6529,-2379.735,1
0.01673408,-9630.239,-1225.714,-3219.532,-7497.964,-916.4698,-2328.78,1
0.0165789,-9643.364,-1239.534,-3261.302,-7516.975,-938.7113,-2313.78,1
0.01658012,-9674.585,-1246.567,-3233.067,-7540.852,-915.2516,-2284.901,1
0.01657577,-9681.705,-1239.698,-3198.782,-7541.776,-919.994,-2258.467,1
0.01657933,-9670.135,-1247.779,-3259.563,-7528.424,-943.3506,-2298.359,1
0.0165795,-9601.172,-1248.989,-3231.298,-7471.329,-939.789,-2383.596,1
0.0165795,-9666.287,-1291.637,-3236.518,-7534.579,-922.4489,-2416.726,1
0.01657853,-9655.945,-1238.384,-3351.327,-7522.2,-931.0076,-2490.24,1
0.01657858,-9699.643,-1257.137,-3396.955,-7564.418,-951.1525,-2519.154,1
0.01657938,-9740.635,-1281.348,-3365.132,-7586.659,-965.406,-2385.277,1
0.01657853,-9723.002,-1333.094,-3307.73,-7568.466,-994.7864,-2338.396,1
0.01657876,-9680.065,-1317.599,-3272.903,-7544.362,-965.4807,-2351.933,1
0.01657919,-9719.188,-1306.052,-3213.488,-7569.768,-966.738,-2313.792,1
0.0165797,-9712.988,-1285.823,-3204.458,-7564.873,-978.8573,-2278.594,1
0.0165797,-9671.446,-1272.836,-3224.347,-7533.042,-948.3448,-2348.631,1
0.01658079,-9721.351,-1279.386,-3217.113,-7571.186,-946.4235,-2363.113,1
0.01657418,-9744.864,-1295.632,-3226.028,-7588.988,-946.9083,-2278.564,1
0.01657418,-9746.077,-1314.792,-3155.969,-7589.695,-967.3071,-2104.265,1
0.0165782,-9653.351,-1330.28,-2987.825,-7509.853,-1005.039,-2032.585,1
0.01657982,-9581.347,-1322.373,-3044.95,-7468.381,-953.9094,-2236.322,1
0.01658039,-9648.633,-1328.567,-3140.507,-7515.732,-974.629,-2326.06,1
0.01657874,-9698.318,-1301.097,-3228.057,-7558.216,-955.4755,-2311.747,1
0.01657924,-9685.335,-1280.882,-3252.39,-7543.788,-941.4213,-2307.739,1
0.0165794,-9666.514,-1281.269,-3226.978,-7524.972,-957.2923,-2296.752,1
0.01657845,-9678.764,-1283.475,-3218.483,-7534.389,-940.7203,-2328.131,1
0.01657637,-9679.34,-1256.441,-3257.891,-7543.703,-945.3394,-2363.075,1
0.01657871,-9672.058,-1282.233,-3248.911,-7533.701,-941.0265,-2322.439,1
0.01658099,-9679.938,-1245.738,-3226.519,-7539.744,-930.9324,-2332.08,1
0.01658099,-9660.188,-1278.032,-3252.638,-7529.094,-959.0415,-2305.952,1
0.01657761,-9669.821,-1261.878,-3187.129,-7532.077,-926.2045,-2305.721,1
0.01657555,-9712.016,-1261.21,-3187.026,-7559.88,-923.5767,-2234.813,1
0.01657768,-9667.809,-1221.632,-3176.17,-7526.008,-895.9532,-2240.872,1
0.01657768,-9661.873,-1245.037,-3203.186,-7521.533,-909.894,-2316.537,1
0.01658023,-9698.404,-1246.98,-3193.5,-7545.059,-922.3029,-2301.624,1
0.01658007,-9727.426,-1264.32,-3208.686,-7576.009,-951.6805,-2259.226,1
0.01657906,-9748.708,-1264.624,-3177.412,-7587.634,-944.4024,-2239.308,1
0.01657931,-9690.887,-1255.713,-3152.381,-7543.257,-918.2014,-2273.003,1
0.01658222,-9687.935,-1239.045,-3219.315,-7541.012,-892.8038,-2322.294,1
0.03315802,-9705.067,-1229.728,-3234.765,-7554.108,-916.5849,-2276.074,1
0.03315802,-9668.515,-1254.691,-3231.454,-7521.727,-943.7723,-2261.871,1
0.01658238,-9651.588,-1265.513,-3159.648,-7522.205,-942.8698,-2243.893,1
0.0165782,-9629.936,-1248.16,-3199.26,-7501.375,-904.1025,-2317.527,1
0.0165785,-9678.459,-1276.173,-3204.599,-7538.623,-943.0198,-2293.552,1
0.01658258,-9658.234,-1252.724,-3250.466,-7527.615,-935.5745,-2332.689,1
0.01662303,-9673.141,-1291.339,-3273.565,-7521.335,-957.3002,-2339.865,1
0.01662303,-9637.358,-1276.822,-3266.607,-7507.358,-948.5845,-2334.303,1
0.01658542,-9647.857,-1256.788,-3252.169,-7511.085,-937.3838,-2333.609,1
0.01658246,-9685.157,-1254.871,-3211.604,-7535.224,-926.5156,-2321.057,1
0.01658246,-9683.651,-1290.902,-3197.548,-7534.03,-964.5821,-2285.942,1
0.01658774,-9679.377,-1303.298,-3182.948,-7539.594,-967.5469,-2235.843,1
0.01658598,-9685.817,-1283.257,-3165.878,-7544.476,-946.287,-2248.245,1
0.01658598,-9687.281,-1297.955,-3190.001,-7545.538,-967.1588,-2298.997,1
0.01658614,-9670.312,-1257.317,-3231.103,-7528.099,-936.8565,-2302.147,1
0.01658706,-9670.28,-1245.249,-3197.989,-7545.826,-912.1874,-2357.668,1
0.01658595,-9743.657,-1259.729,-3192.739,-7592.958,-938.6007,-2276.826,1
0.01658783,-9708.555,-1246.745,-3252.789,-7561.457,-940.0685,-2291.455,1
0.01658513,-9637.8,-1257.887,-3243.962,-7498.485,-922.3089,-2318.976,1
0.01658513,-9667.342,-1277.583,-3251.617,-7521.236,-923.5525,-2363.753,1
0.01658513,-9742.438,-1290.728,-3214.769,-7583.056,-935.531,-2297.186,1
0.01658918,-9738.562,-1273.26,-3205.928,-7575.426,-962.8604,-2256.125,1
0.01658918,-9680.453,-1283.036,-3185.712,-7530.883,-948.652,-2292.068,1
0.0165888,-9695.149,-1300.907,-3213.324,-7537.725,-938.7029,-2325.416,1
0.01658592,-9681.559,-1277.717,-3159.035,-7540.648,-989.3483,-2169.538,1
0.01658722,-9619.57,-1298.646,-3146.467,-7493.356,-975.0187,-2240.12,1
0.01658693,-9643.456,-1305.274,-3143.157,-7511.848,-992.9779,-2299.313,1
0.01658693,-9694.32,-1342.121,-3207.404,-7546.381,-995.4656,-2324.622,1
0.01658908,-9685.248,-1329.386,-3261.002,-7543.827,-988.8427,-2293.411,1
0.01658908,-9648.919,-1309.745,-3219.222,-7507.205,-955.6895,-2285.744,1
0.01658674,-9683.056,-1305.381,-3142.425,-7537.826,-938.7615,-2252.576,1
0.01658913,-9666.598,-1248.133,-3150.49,-7520.81,-911.704,-2252.3,1
0.01658913,-9654.731,-1244.247,-3156.002,-7511.805,-924.7281,-2225.386,1
0.01658325,-9611.378,-1238.88,-3230.882,-7492.099,-932.7008,-2314.043,1
0.01658753,-9633.077,-1281.687,-3221.034,-7495.587,-936.9868,-2365.618,1
0.01658753,-9694.612,-1272.806,-3231.456,-7551.562,-943.7996,-2310.177,1
0.01659053,-9708.53,-1284.693,-3230.973,-7562.056,-961.7586,-2283.654,1
0.01659053,-9659.889,-1280.672,-3203.966,-7524.757,-945.35,-2296.225,1
0.01643172,-9643.554,-1244.849,-3177.02,-7507.894,-926.5963,-2289.767,1
0.01674128,-9700.544,-1266.069,-3143.334,-7538.206,-939.3159,-2263.283,1
0.01658595,-9695.957,-1271.415,-3137.652,-7547.903,-945.0939,-2231.156,1
0.01658591,-9692.201,-1296.895,-3129.932,-7544.939,-969.5363,-2207.787,1
0.01658574,-9674.347,-1309.964,-3151.118,-7526.807,-975.2552,-2248.897,1
0.01658601,-9664.909,-1284.293,-3187.156,-7524.048,-942.2347,-2300.068,1
0.01658967,-9673.916,-1302.225,-3222.925,-7526.531,-977.5364,-2340.028,1
0.01658707,-9710.17,-1312.525,-3226.682,-7558.646,-955.6573,-2318.008,1
0.01658198,-9708.024,-1286.837,-3189.698,-7561.299,-979.7396,-2273.542,1
0.01658689,-9703.275,-1279.733,-3249.841,-7557.548,-980.9031,-2300.642,1
0.01658479,-9680.363,-1312.707,-3234.966,-7526.671,-983.3207,-2330.664,1
0.01658499,-9684.452,-1318.87,-3225.632,-7547.552,-981.5432,-2314.493,1
0.01658409,-9729.217,-1306.315,-3193.195,-7577.264,-979.6053,-2292.948,1
0.0165875,-9714.107,-1289.252,-3211.063,-7565.547,-949.066,-2284.452,1
0.01658662,-9668.466,-1308.013,-3170.214,-7530.603,-959.5546,-2272.381,1
0.04976577,-9656.195,-1286.109,-3132.289,-7516.886,-953.0593,-2236.344,1
0.04976577,-9692.357,-1293.364,-3174.765,-7553.48,-1008.766,-2277.615,1
0.01658158,-9693.743,-1330.37,-3217.498,-7554.494,-1010.322,-2336.595,1
0.01658638,-9694.474,-1336.915,-3238.1,-7541.713,-997.1415,-2337.742,1
0.01658638,-9675.812,-1314.488,-3221.037,-7531.887,-966.5892,-2269.678,1
0.01658842,-9657.263,-1281.115,-3187.76,-7517.779,-932.2433,-2274.471,1
0.01658842,-9666.523,-1288.199,-3190.392,-7516.102,-936.6825,-2303.687,1
0.01658498,-9684.165,-1256.254,-3193.917,-7547.38,-927.0763,-2285.317,1
0.01658567,-9671.525,-1264.596,-3172.121,-7519.978,-949.6855,-2272.025,1
0.01658567,-9633.993,-1301.944,-3126.595,-7495.822,-1002.379,-2243.464,1
0.0165858,-9631.205,-1321.12,-3139.329,-7493.883,-1011.915,-2240.413,1
0.01658235,-9633.233,-1334.892,-3169.33,-7495.61,-1012.014,-2253.266,1
0.01658235,-9623.639,-1325.918,-3194.771,-7492.868,-980.0609,-2248.954,1
0.01658784,-9625.033,-1285.87,-3170.455,-7489.663,-964.3798,-2256.181,1
0.01658601,-9662.616,-1314.916,-3159.439,-7522.93,-969.1624,-2261.407,1
0.01658531,-9650.4,-1305.264,-3162.406,-7518.015,-949.8672,-2245.461,1
0.01658531,-9694.29,-1289.432,-3184.634,-7542.671,-959.7079,-2273.043,1
0.0165761,-9689.765,-1361.276,-3195.753,-7543.515,-1031.772,-2267.378,1
0.01658472,-9664.814,-1387.37,-3190.27,-7524.359,-1049.208,-2281.158,1
0.01658835,-9659.006,-1373.782,-3194.12,-7515.491,-1043.767,-2261.059,0
0.01658858,-9665.54,-1377.1,-3174.289,-7529.371,-1039.398,-2260.314,0
0.01658919,-9642.914,-1375.732,-3167.11,-7498.787,-1038.683,-2280.626,0
0.01658919,-9656.159,-1327.342,-3207.036,-7522.292,-999.0575,-2321.906,0
0.01658736,-9649.794,-1347.978,-3152.049,-7517.44,-1010.672,-2245.415,0
0.01658866,-9659.406,-1313.608,-3194.429,-7515.947,-976.6274,-2260.725,0
0.01655003,-9647.197,-1320.881,-3207.253,-7506.639,-957.3536,-2330.051,0
0.01655003,-9658.963,-1316.218,-3208.068,-7520.108,-969.9744,-2288.388,0
0.01658565,-9667.056,-1347.021,-3133.989,-7526.281,-1007.144,-2218.471,0
0.01658993,-9628.54,-1329.986,-3126.134,-7501.277,-992.9608,-2229.615,0
0.01658755,-9680.408,-1337.962,-3189.172,-7540.976,-981.3286,-2288.467,0
0.01658755,-9715.126,-1315.775,-3168.792,-7562.941,-964.9594,-2246.246,0
0.01658487,-9681.865,-1315.528,-3158.692,-7532.906,-1014.163,-2226.972,0
0.01658644,-9634.438,-1319.942,-3113.048,-7501.081,-968.2099,-2250.694,0
0.01658644,-9642.326,-1305.88,-3134.7,-7511.657,-996.0435,-2255.745,0
0.01658421,-9667.115,-1318.362,-3180.75,-7526.217,-963.5058,-2265.221,0
0.0165877,-9682.671,-1310.144,-3204.574,-7538.068,-971.4313,-2308.84,0
0.01658737,-9693.876,-1316.282,-3205.646,-7537.678,-974.7975,-2269.864,0
0.01658737,-9669.105,-1304.499,-3170.175,-7531.97,-955.0399,-2279.539,0
0.01658634,-9676.9,-1302.773,-3168.698,-7529.039,-986.5063,-2261.496,0
0.01658668,-9638.07,-1331.325,-3154.909,-7499.372,-999.186,-2249.611,0
0.01658606,-9640.967,-1321.022,-3156.968,-7506.139,-976.8542,-2269.539,0
0.01659151,-9669.508,-1293.966,-3136.799,-7532.446,-949.2903,-2239.763,0
0.01658662,-9676.315,-1299.586,-3142.938,-7533.172,-971.9893,-2238.76,0
0.01657391,-9689.004,-1292.651,-3136.74,-7542.807,-957.0561,-2267.089,0
0.01658723,-9680.771,-1312.337,-3201.68,-7531.998,-984.9182,-2284.298,0
0.01658723,-9662.48,-1331.436,-3216.925,-7517.994,-998.3699,-2319.89,0
0.01658558,-9699.429,-1321.703,-3212.908,-7550.661,-968.697,-2305.233,0
0.01658332,-9748.684,-1324.471,-3194.86,-7588.136,-983.8365,-2276.054,0
0.01659083,-9669.605,-1302.796,-3200.163,-7523.045,-967.5368,-2274.516,0
0.01658909,-9639.757,-1301.451,-3191.178,-7495.878,-968.2262,-2293.087,0
0.01659216,-9640.181,-1306.463,-3187.602,-7509.663,-982.3488,-2269.796,0
0.01658839,-9673.016,-1306.201,-3194.139,-7525.981,-990.1823,-2281.987,0
0.01659006,-9635.658,-1298.889,-3234.448,-7493.032,-987.0786,-2341.24,0
0.01658697,-9679.273,-1327.541,-3182.062,-7530.907,-960.4913,-2301.552,0
0.01658633,-9700.475,-1283.926,-3115.086,-7547.049,-991.1822,-2173.961,0
0.01658769,-9647.349,-1296.38,-3155.186,-7515.24,-995.1788,-2232.946,0
0.01658909,-9640.8,-1269.52,-3194.962,-7510.319,-946.972,-2338.228,0
0.01658596,-9689.199,-1306.997,-3182.315,-7542.926,-970.4745,-2331.704,0
0.01658527,-9671.973,-1277.366,-3251.405,-7525.255,-950.6339,-2362.709,0
0.01658725,-9690.563,-1293.314,-3254.852,-7548.302,-964.3063,-2363.346,0
0.01658725,-9683.736,-1354.781,-3298.221,-7538.563,-1000.739,-2388.39,0
0.01658766,-9682.874,-1392.459,-3216.142,-7528.995,-1036.522,-2259.126,0
0.016587,-9668.879,-1364.13,-3102.858,-7522.722,-1046.705,-2127.877,0
0.01658839,-9616.467,-1381.635,-3055.078,-7478.309,-1030.739,-2135.223,0
0.01658839,-9618.157,-1366.959,-3069.127,-7488.695,-1023.193,-2249.328,0
0.01658811,-9668.397,-1387.61,-3181.162,-7522.794,-1028.005,-2345.373,0
0.01658756,-9664.574,-1382.233,-3296.583,-7519.855,-1026.481,-2408.344,0
0.01658608,-9675.612,-1350.993,-3273.298,-7528.276,-988.6353,-2371.724,0
0.01658608,-9701.952,-1359.696,-3229.351,-7557.198,-979.2294,-2281.582,0
0.01658599,-9692.907,-1333.678,-3189.091,-7545.701,-953.846,-2276.844,0
0.01658749,-9685.106,-1322.13,-3166.695,-7539.647,-941.2801,-2277.534,0
0.01658547,-9666.008,-1378.044,-3166.221,-7520.579,-1003.789,-2273.949,0
0.016587,-9683.566,-1455.699,-3144.747,-7534.013,-1083.171,-2238.269,0
0.01658794,-9667.224,-1430.712,-3096.605,-7534.792,-1038.453,-2211.151,0
0.01658794,-9648.985,-1418.373,-3072.891,-7512.005,-1047.073,-2202.541,0
0.01658848,-9678.158,-1399.274,-3078.891,-7529.929,-1029.793,-2211.106,0
0.01658812,-9665.27,-1391.469,-3080.239,-7515.637,-1056.41,-2170.626,0
0.01658778,-9617.809,-1413.919,-3072.894,-7479.446,-1086.148,-2130.211,0
0.01658622,-9619.129,-1420.929,-3061.238,-7485.101,-1094.585,-2154.426,0
0.01658622,-9639.155,-1440.423,-3069.077,-7504.996,-1111.159,-2141.933,0
0.01658597,-9621.229,-1450.583,-3074.26,-7491.383,-1105.6,-2148.709,0
0.01658824,-9641.964,-1472.624,-3076.408,-7507.341,-1141.814,-2196.035,0
0.01658682,-9633.175,-1489.988,-3101.702,-7496.239,-1105.676,-2249.258,0
0.01658561,-9652.449,-1442.072,-3145.714,-7515.46,-1049.703,-2286.948,0
0.01658198,-9687.092,-1416.908,-3123.369,-7541.888,-1050.959,-2287.385,0
0.01658801,-9722.682,-1463.315,-3117.996,-7560.045,-1093.054,-2236.873,0
0.01658699,-9648.807,-1446.623,-3129.152,-7516.703,-1081.526,-2266.696,0
0.0165855,-9652.213,-1446.561,-3179.569,-7514.905,-1062.278,-2321.138,0
0.01658678,-9654.188,-1430.675,-3260.793,-7516.44,-1044.851,-2407.462,0
0.01658825,-9697.479,-1445.067,-3269.701,-7545.069,-1071.662,-2362.094,0
0.01659035,-9703.74,-1456.674,-3235.541,-7549.708,-1094.313,-2284.006,0
0.01658899,-9717.104,-1480.532,-3155.597,-7559.759,-1102.983,-2235.524,0
0.01658899,-9701.341,-1450.42,-3099.749,-7560.836,-1095.325,-2201.857,0
0.01658861,-9731.936,-1473.274,-3103.074,-7570.762,-1117.12,-2218.803,0
0.01658518,-9691.682,-1467.626,-3141.749,-7539.83,-1094.083,-2254.626,0
0.01658951,-9685.691,-1439.924,-3143.723,-7539.66,-1051.248,-2287.451,0
0.01658879,-9683.332,-1416.069,-3144.425,-7533.415,-1018.714,-2261.343,0
0.01658879,-9661.94,-1389.145,-3163.213,-7521.525,-1014.971,-2272.367,0
0.01658934,-9662.891,-1404.254,-3160.514,-7513.466,-1024.249,-2238.951,0
0.01658718,-9656.812,-1379.399,-3127.203,-7513.344,-1006.542,-2235.986,0
0.01658718,-9707.772,-1440.311,-3159.382,-7556.764,-1048.285,-2281.145,0
0.01658833,-9676.634,-1447.886,-3117.439,-7524.008,-1066.239,-2205.846,0
0.01658648,-9721.374,-1440.512,-3086.569,-7571.481,-1041.154,-2202.411,0
0.01658672,-9695.5,-1430.177,-3121.859,-7542.692,-1054.6,-2232.082,0
0.01658672,-9664.554,-1473.708,-3139.116,-7519.032,-1091.707,-2272.469,0
0.01658643,-9655.39,-1489.749,-3148.927,-7520.985,-1105.715,-2247.215,0
0.01658792,-9643.688,-1480.3,-3145.079,-7503.28,-1102.712,-2211.856,0
0.01658629,-9661.304,-1467.85,-3113.648,-7516.872,-1068.113,-2222.83,0
0.01658629,-9662.914,-1461.247,-3139.886,-7522.595,-1083.242,-2189.788,0
0.01658452,-9662.905,-1465.01,-3121.351,-7513.765,-1069.988,-2205.386,0
0.01658789,-9652.879,-1455.933,-3119.003,-7515.028,-1068.564,-2229.731,0
0.01658789,-9626.222,-1475.883,-3112.21,-7490.316,-1102.893,-2237.605,0
0.01658933,-9641.824,-1498.711,-3182.53,-7502.397,-1110.222,-2303.226,0
0.01607682,-9674.437,-1486.41,-3182.643,-7527.384,-1120.872,-2259.289,0
0.01658764,-9638.134,-1511.016,-3122.268,-7499.631,-1125.096,-2211.958,0
0.01658395,-9655.765,-1529.547,-3170.338,-7513.19,-1147.626,-2259.009,0
0.01659946,-9665.063,-1519.926,-3173.016,-7529.172,-1137.244,-2293.348,0
0.0165897,-9686.126,-1542.787,-3169.208,-7540.784,-1170.561,-2285.001,0
0.0165897,-9658.351,-1546.934,-3210.312,-7510.618,-1202.232,-2210.447,0
0.01658842,-9655.23,-1545.339,-3096.688,-7503.841,-1187.098,-2165.774,0
0.01658929,-9661.176,-1525.709,-3128.167,-7526.157,-1169.35,-2214.204,0
0.01658652,-9664.954,-1508.627,-3170.892,-7520.164,-1133.995,-2234.175,0
0.01658652,-9627.122,-1518.084,-3160.654,-7495.709,-1121.8,-2241.268,0
0.03317801,-9632.904,-1491.004,-3208.142,-7504.682,-1090.588,-2298.251,0
0.01658625,-9678.635,-1456.146,-3168.412,-7535.239,-1066.308,-2279.849,0
0.01658625,-9689.748,-1453.305,-3140.914,-7543.63,-1078.77,-2232.164,0
0.01658917,-9689.394,-1478.549,-3151.003,-7538.803,-1093.235,-2254.89,0
0.01658899,-9701.102,-1475.304,-3160.639,-7560.934,-1092.219,-2239.524,0
0.01658649,-9675.777,-1471.284,-3164.387,-7528.146,-1091.997,-2235.744,0
0.01658562,-9655.083,-1471.197,-3194.732,-7516.763,-1078.714,-2292.976,0
0.01658922,-9660.824,-1463.347,-3167.455,-7521.198,-1075.037,-2253.411,0
0.01658922,-9634.336,-1449.573,-3152.646,-7492.142,-1083.469,-2226.576,0
0.0165871,-9635.504,-1473.873,-3132.176,-7493.176,-1106.56,-2213.239,0
0.01658673,-9638.643,-1457.207,-3159.775,-7504.558,-1102.974,-2236.105,0
0.01658877,-9646.331,-1492.169,-3149.602,-7510.504,-1124.439,-2227.799,0
0.01658863,-9644.28,-1488.572,-3163.238,-7504.547,-1096.958,-2247.676,0
0.01659004,-9637.56,-1493.001,-3187.291,-7499.47,-1096.454,-2297.028,0
0.01659004,-9645.935,-1500.353,-3186.109,-7510.367,-1110.913,-2286.8,0
0.01658772,-9638.794,-1489.203,-3211.364,-7504.939,-1107.048,-2268.549,0
0.01658754,-9646.874,-1501.728,-3169.548,-7497.861,-1116.586,-2281.358,0
0.0165875,-9665.869,-1483.48,-3161.564,-7530.127,-1092.341,-2300.958,0
0.0165875,-9658.369,-1499.292,-3205.287,-7515.463,-1090.873,-2291.321,0
0.01658859,-9650.444,-1470.47,-3161.197,-7509.396,-1088.535,-2225.949,0
0.01659058,-9602.608,-1484.258,-3135.63,-7477.326,-1093.031,-2253.072,0
0.01658799,-9641.395,-1433.439,-3178.652,-7493.824,-1060.628,-2283.51,0
0.01658532,-9637.458,-1449.825,-3190.798,-7504.16,-1083.857,-2276.918,0
0.01658869,-9605.52,-1475.46,-3229.978,-7470.943,-1104.068,-2285.143,0
0.01659049,-9601.31,-1509.746,-3250.494,-7476.758,-1111.663,-2351.313,0
0.0165884,-9592.62,-1514.34,-3192.229,-7461.407,-1120.6,-2279.627,0
0.01658402,-9649.741,-1545.421,-3210.429,-7500.758,-1161.37,-2281.31,0
0.01658686,-9663.204,-1533.149,-3145.181,-7515.418,-1154.226,-2214.27,0
0.01657461,-9626.684,-1482.048,-3114.035,-7483.005,-1120.006,-2187.404,0
0.01657713,-9611.896,-1511.245,-3120.403,-7480.637,-1135.377,-2204.229,0
0.01657713,-9621.254,-1517.381,-3114.713,-7487.868,-1129.17,-2220.903,0
0.0165789,-9652.313,-1497.036,-3105.529,-7511.619,-1114.67,-2199.131,0
0.0165789,-9627.209,-1484.832,-3134.533,-7487.943,-1110.068,-2217.356,0
0.0165771,-9655.645,-1492.429,-3095.434,-7509.682,-1100.953,-2223.904,0
0.01657537,-9676.637,-1494.356,-3171.525,-7530.058,-1112.435,-2261.66,0
0.01657537,-9646.648,-1473.244,-3158.236,-7502.576,-1086.356,-2252.529,0
0.01658657,-9631.126,-1458.931,-3134.589,-7504.002,-1087.726,-2222.532,0
0.01657667,-9649.957,-1460.111,-3105.063,-7513.958,-1067.426,-2233.314,0
0.0165753,-9656.42,-1475.75,-3142.242,-7518.842,-1088.38,-2245.744,0
0.01657522,-9641.253,-1456.405,-3210.468,-7502.764,-1074.225,-2278.707,0
0.01657698,-9638.919,-1443.482,-3272.03,-7509.851,-1061.161,-2346.247,0
0.01657698,-9659.849,-1432.548,-3261.198,-7521.391,-1065.722,-2340.267,0
0.01657942,-9666.39,-1465.015,-3240.695,-7517.447,-1097.314,-2317.301,0
0.01657248,-9628.952,-1500.288,-3253.858,-7497.66,-1131.167,-2309.369,0
0.01657248,-9654.854,-1499.466,-3238.671,-7530.784,-1150.611,-2278.429,0
0.01657779,-9642.471,-1523.035,-3248.098,-7507.962,-1146.826,-2267.79,0
0.01657779,-9652.701,-1498.882,-3248.714,-7511.351,-1120.717,-2304.724,0
0.01657578,-9620.932,-1495.439,-3255.768,-7491.51,-1095.315,-2318.248,0
0.0165751,-9618.025,-1481.535,-3217.173,-7484.954,-1105.48,-2290.808,0
0.0165751,-9647.457,-1489.332,-3180.62,-7511.955,-1101.751,-2266.477,0
0.01657967,-9659.237,-1497.559,-3183.149,-7516.486,-1101.11,-2288.728,0
0.01657967,-9680.366,-1529.18,-3231.246,-7536.983,-1147.39,-2320.771,0
0.01657767,-9630.546,-1496.848,-3232.369,-7503.24,-1123.082,-2274.684,0
0.01657379,-9601.439,-1498.133,-3208.133,-7485.504,-1108.791,-2292.995,0
0.01657644,-9603.524,-1478.322,-3212.171,-7473.949,-1077.876,-2324.87,0
0.01657926,-9622.533,-1451.44,-3213.219,-7484.181,-1074.08,-2301.484,0
0.01657926,-9623.797,-1484.151,-3265.073,-7489.65,-1112.226,-2329.681,0
0.01657764,-9635.793,-1484.544,-3226.63,-7498.856,-1106.697,-2297.091,0
0.016579,-9635.086,-1467.018,-3220.483,-7498.315,-1090.55,-2298.468,0
0.016579,-9626.918,-1476.888,-3285.779,-7492.082,-1112.56,-2345.529,0
0.01657603,-9649.875,-1500.384,-3283.879,-7509.638,-1113.042,-2351.026,0
0.01657692,-9653.285,-1511.773,-3234.665,-7503.319,-1144.668,-2285.807,0
0.01657692,-9624.026,-1534.728,-3225.76,-7485.371,-1145.983,-2277.943,0
0.01657587,-9623.643,-1521.143,-3217.601,-7489.571,-1117.432,-2316.101,0
0.01657524,-9633.555,-1515.827,-3229.09,-7497.183,-1129.924,-2327.36,0
0.01657684,-9653.788,-1486.537,-3240.979,-7512.631,-1101.119,-2312.843,0
0.01657684,-9658.89,-1483.376,-3290.751,-7516.451,-1087.409,-2344.98,0
0.0165804,-9621.843,-1450.817,-3287.438,-7474.792,-1069.569,-2341.407,0
0.01657583,-9596.693,-1459.512,-3225.805,-7473.415,-1075.84,-2311.635,0
0.01657561,-9629.022,-1481.075,-3276.168,-7498.234,-1100.744,-2324.363,0
0.01657561,-9648.027,-1455.852,-3301.319,-7508.312,-1083.172,-2349.557,0
0.0164814,-9653.464,-1451.376,-3222.915,-7521.263,-1072.942,-2321.361,0
0.01657849,-9646.662,-1468.053,-3208.029,-7502.682,-1084.971,-2300.359,0
0.016576,-9634.621,-1478.429,-3233.07,-7506.755,-1097.654,-2298.552,0
0.016576,-9615.573,-1452.688,-3208.49,-7483.344,-1081.326,-2291.485,0
0.01657849,-9604.385,-1461.329,-3164.438,-7466.025,-1076.379,-2274.601,0
0.01657707,-9608.994,-1468.696,-3212.695,-7469.683,-1093.43,-2281.768,0
0.01657665,-9577.563,-1475.116,-3206.102,-7454.658,-1092.249,-2294.281,0
0.01657696,-9608.362,-1471.994,-3180.31,-7482.792,-1092.357,-2294.331,0
0.01657504,-9611.118,-1462.112,-3194.876,-7484.941,-1077.341,-2288.398,0
0.01657703,-9632.735,-1472.833,-3252.466,-7497.04,-1097.77,-2307.798,0
0.01657834,-9654.135,-1476.273,-3259.474,-7508.896,-1096.225,-2323.032,0
0.01657552,-9629.859,-1481.718,-3294.27,-7494.683,-1081.531,-2369.407,0
0.01657778,-9577.968,-1454.963,-3285.16,-7455.056,-1078.839,-2348.593,0
0.016575,-9592.131,-1460.728,-3233.569,-7466.049,-1085.523,-2298.219,0
0.016575,-9610.634,-1463.665,-3203.914,-7475.85,-1085.582,-2293.358,0
0.01657644,-9618.175,-1462.628,-3200.318,-7481.641,-1082.321,-2272.731,0
0.01657815,-9628.151,-1491.181,-3205.742,-7489.259,-1112.454,-2287.001,0
0.01657684,-9626.191,-1490.883,-3221.204,-7492.158,-1109.633,-2302.503,0
0.01657684,-9630.591,-1509.683,-3255.252,-7499.913,-1129.44,-2369.503,0
0.01657308,-9644.222,-1519.142,-3237.654,-7510.261,-1143.425,-2314.323,0
0.01657701,-9625.448,-1530.754,-3251.879,-7486.965,-1136.587,-2334.577,0
0.01657701,-9583.239,-1503.17,-3245.132,-7454.745,-1104.272,-2330.44,0
0.01657572,-9604.16,-1475.071,-3271.812,-7466.445,-1073.1,-2354.899,0
0.01657626,-9613.196,-1456.85,-3298.12,-7477.847,-1096.128,-2342.136,0
0.01657659,-9610.871,-1472.349,-3246.065,-7476.093,-1087.542,-2322.999,0
0.01657676,-9621.743,-1452.541,-3266.859,-7488.851,-1062.508,-2353.547,0
0.01657685,-9624.836,-1459.009,-3254.679,-7486.753,-1082.272,-2307.855,0
0.01657574,-9628.741,-1424.368,-3235.23,-7489.708,-1051.75,-2297.466,0
0.01657707,-9609.915,-1415.62,-3224.045,-7470.868,-1048.603,-2316.157,0
0.01657707,-9626.559,-1434.482,-3225.126,-7492.483,-1061.55,-2305.688,0
0.01657638,-9630.881,-1461.138,-3232.698,-7482.448,-1080.355,-2297.972,0
0.01657965,-9593.261,-1438.987,-3281.145,-7467.003,-1068.439,-2368.531,0
0.01657476,-9577.103,-1457.644,-3268.491,-7454.763,-1089.13,-2349.532,0
0.01657476,-9609.981,-1450.208,-3300.356,-7475.573,-1061.838,-2361.561,0
0.01657376,-9612.636,-1457.074,-3227.385,-7482.044,-1077.113,-2301.791,0
0.01657291,-9608.72,-1444.407,-3236.027,-7470.185,-1071.053,-2311.275,0
0.01657616,-9615.177,-1448.68,-3259.975,-7475.141,-1064.946,-2336.543,0
0.0165702,-9632.266,-1466.211,-3273.732,-7492.616,-1096.654,-2321.239,0
0.0165702,-9634.487,-1459.401,-3242.032,-7503.099,-1080.312,-2322.759,0
0.01657579,-9619.149,-1494.515,-3268.706,-7478.001,-1113.201,-2348.689,0
0.01657859,-9624.308,-1455.281,-3234.184,-7486.373,-1085.59,-2314.771,0
0.01657859,-9638.444,-1468.489,-3219.366,-7497.138,-1090.97,-2293.56,0
0.0165771,-9635.526,-1469.249,-3212.137,-7499.264,-1092.901,-2277.382,0
0.01657852,-9639.298,-1469.581,-3235.388,-7493.212,-1081.21,-2315.802,0
0.01657523,-9617.988,-1446.22,-3222.734,-7485.753,-1076.942,-2284.564,0
0.01657617,-9615.614,-1451.871,-3242.144,-7479.523,-1086.57,-2306.698,0
0.01657617,-9607.553,-1473.659,-3218.118,-7482.262,-1095.738,-2309.145,0
0.01657659,-9617.445,-1471.759,-3233.346,-7480.989,-1100.325,-2301.717,0
0.01657872,-9609.84,-1475.213,-3170.09,-7479.631,-1098.753,-2265.377,0
0.01657872,-9626.561,-1477.277,-3242.23,-7492.427,-1101.383,-2328.722,0
0.01657561,-9638.537,-1469.26,-3247.451,-7501.535,-1088.006,-2325.709,0
0.01657561,-9650.969,-1470.091,-3218.482,-7510.948,-1101.653,-2274.447,0
0.01657653,-9624.82,-1470.532,-3226.986,-7490.872,-1088.659,-2304.593,0
0.01657443,-9626.063,-1466.118,-3258.948,-7482.955,-1087.225,-2338.698,0
0.01657443,-9596.75,-1470.568,-3266.092,-7469.455,-1086.754,-2318.265,0
0.01657799,-9594.277,-1472.422,-3286.913,-7454.378,-1089.831,-2337.673,0
0.01657577,-9597.273,-1435.994,-3270.582,-7461.228,-1066.444,-2334.183,0
0.01657661,-9636.962,-1430.399,-3219.056,-7491.618,-1068.663,-2300.288,0
0.01657747,-9645.759,-1454.375,-3237.513,-7498.267,-1075.723,-2315.854,0
0.01657582,-9621.948,-1455.386,-3237.256,-7493.291,-1073.206,-2322.59,0
0.01657656,-9625.87,-1462.358,-3221.358,-7491.832,-1081.055,-2298.539,0
0.01657656,-9636.913,-1439.563,-3216.322,-7509.1,-1065.592,-2306.685,0
0.01657594,-9638.968,-1443.319,-3218.197,-7506.153,-1072.141,-2288.241,0
0.0165783,-9647.713,-1439.524,-3204.176,-7503.894,-1064.863,-2299.236,0
0.01657766,-9615.989,-1445.102,-3201.612,-7479.6,-1075.837,-2290.446,0
0.01657503,-9628.462,-1463.501,-3221.581,-7489.173,-1089.629,-2308.84,0
0.01657564,-9634.683,-1479.551,-3236.784,-7493.919,-1099.617,-2310.762,1
0.01657564,-9602.84,-1485.986,-3238.227,-7478.451,-1101.661,-2309.621,1
0.01657731,-9608.806,-1485.223,-3229.573,-7474.222,-1099.588,-2317.392,1
0.01657755,-9613.394,-1466.925,-3222.206,-7482.224,-1099.656,-2296.516,1
0.0165791,-9629.525,-1487.983,-3189.651,-7503.433,-1113.474,-2259.8,1
0.01657695,-9626.877,-1472.965,-3189.434,-7496.927,-1092.76,-2270.072,1
0.01657695,-9626.3,-1480.346,-3196.348,-7483.166,-1101.973,-2280.758,1
0.01657595,-9605.802,-1460.755,-3267.773,-7476.39,-1084.194,-2334.54,1
0.01657545,-9608.438,-1457.145,-3248.931,-7478.469,-1088.395,-2325.785,1
0.01648093,-9602.326,-1481.439,-3249.866,-7473.853,-1106.411,-2322.234,1
0.01657944,-9649.821,-1492.947,-3192.768,-7505.742,-1095.464,-2311.516,1
0.0165772,-9646.425,-1488.932,-3261.067,-7507.468,-1105.91,-2333.249,1
0.01657454,-9635.458,-1474.701,-3264.269,-7485.706,-1091.932,-2321.708,1
0.01657454,-9593.3,-1466.214,-3248.677,-7457.942,-1088.777,-2321.889,1
0.0165774,-9635.333,-1474.903,-3263.154,-7507.891,-1091.557,-2343.405,1
0.01657335,-9634.723,-1457.089,-3271.734,-7498.485,-1071.311,-2335.421,1
0.01657903,-9641.873,-1447.212,-3266.604,-7508.328,-1067.176,-2328.895,1
0.01657496,-9639.355,-1454.124,-3260.415,-7501.896,-1077.263,-2340.432,1
0.01657739,-9633.27,-1459.69,-3271.376,-7492.769,-1086.828,-2331.82,1
0.01657935,-9614.083,-1470.353,-3264.699,-7486.974,-1099.413,-2344.647,1
0.01657816,-9616.338,-1468.872,-3282.185,-7475.445,-1097.138,-2368.157,1
0.01657766,-9638.592,-1474.858,-3290.042,-7496.922,-1088.942,-2383.406,1
0.01657385,-9693.766,-1457.487,-3326.987,-7534.564,-1081.759,-2386.206,1
0.01657485,-9681.347,-1479.722,-3221.397,-7524.846,-1112.34,-2272.666,1
0.01657528,-9620.556,-1489.758,-3179.032,-7487.14,-1134.597,-2220.909,1
0.01657765,-9606.156,-1467.874,-3215.183,-7467.353,-1101.132,-2298.503,1
0.01657756,-9618.842,-1478.8,-3190.538,-7486.033,-1093.402,-2287.851,1
0.01657577,-9646.492,-1446.281,-3187.015,-7502.758,-1083.799,-2254.61,1
0.01657682,-9612.718,-1447.875,-3183.985,-7476.926,-1081.496,-2255.872,1
0.01657795,-9600.781,-1466.129,-3188.516,-7467.899,-1084.978,-2271.745,1
0.01657795,-9615.046,-1464.383,-3178.681,-7487.771,-1087.264,-2251.379,1
0.01657545,-9619.218,-1446.21,-3225.344,-7482.125,-1088.639,-2294.683,1
0.0165787,-9627.116,-1458.392,-3235.226,-7497.05,-1075.554,-2310.801,1
0.01635538,-9623.013,-1428.482,-3237.527,-7493.896,-1053.878,-2294.488,1
0.0165744,-9613.948,-1410.94,-3287.044,-7478.112,-1050.335,-2311.209,1
0.01657768,-9598.594,-1406.205,-3293.023,-7470.875,-1042.472,-2350.225,1
0.01666051,-9619.741,-1409.248,-3304.908,-7487.113,-1046.646,-2346.308,1
0.01666051,-9628.854,-1434.764,-3251.805,-7498.504,-1068.216,-2298.334,1
0.01659183,-9618.7,-1449.1,-3237.235,-7477.417,-1085.841,-2305.222,1
0.01659267,-9641.361,-1425.997,-3259.149,-7503.609,-1061.52,-2343.573,1
0.01659267,-9625.883,-1449.544,-3278.425,-7491.717,-1067.1,-2354.573,1
0.01659523,-9645.568,-1427.228,-3268.947,-7502.301,-1058.65,-2317.262,1
0.01659262,-9610.39,-1442.983,-3229.252,-7470.942,-1052.74,-2293.01,1
0.01659262,-9627.45,-1439.606,-3255.1,-7484.043,-1056.847,-2289.575,1
0.0165949,-9645.24,-1407.335,-3241.436,-7510.92,-1075.173,-2287.771,1
0.01659711,-9650.211,-1438.043,-3309.92,-7510.189,-1059.342,-2346.209,1
0.01659223,-9656.199,-1422.619,-3261.383,-7510.236,-1045.65,-2322.517,1
0.01659214,-9637.302,-1403.359,-3239.882,-7504.578,-1046.262,-2291.391,1
0.01659464,-9606.348,-1416.132,-3273.744,-7467.624,-1057.232,-2352.219,1
0.01659464,-9618.059,-1416.828,-3283.621,-7467.82,-1085.783,-2442.157,1
0.01659399,-9591.708,-1393.246,-3362.094,-7461.082,-1059.728,-2417.523,1
0.01659356,-9612.18,-1419.917,-3391.536,-7481.282,-1049.157,-2419.64,1
0.01659356,-9584.484,-1415.195,-3368.323,-7451.318,-1041.167,-2381.82,1
0.01659503,-9581.651,-1403.61,-3282.594,-7458.18,-1042.64,-2313.079,1
0.01605493,-9621.39,-1444.708,-3217.888,-7488.646,-1079.355,-2303.122,1
0.01659258,-9641.359,-1441.7,-3232.69,-7499.425,-1088.873,-2290.858,1
0.01659325,-9608.522,-1384.629,-3212.458,-7474.264,-1029.976,-2292.533,1
0.01657811,-9601.485,-1367.4,-3284.893,-7460.071,-996.4947,-2374.927,1
0.01657942,-9669.359,-1349.791,-3213.804,-7516.394,-961.4313,-2299.489,1
0.01657942,-9656.888,-1307.799,-3236.024,-7515.541,-1000.347,-2231.08,1
0.01657858,-9616.198,-1384.453,-3275.9,-7488.766,-1041.996,-2305.568,1
0.01657594,-9602.359,-1406.395,-3250.967,-7460.494,-1048.795,-2397.325,1
0.0165775,-9643.97,-1403.8,-3265.681,-7505.655,-1052.31,-2351.637,1
0.01657931,-9621.951,-1334.441,-3300.427,-7484.323,-984.3701,-2401.088,1
0.01657704,-9634.431,-1467.701,-3289.298,-7498.291,-1126.788,-2430.575,1
0.01657741,-9630.673,-1488.843,-3345.95,-7490.942,-1125.942,-2402.112,1
0.01657503,-9669.339,-1437.952,-3331.612,-7520.437,-1065.399,-2365.406,1
0.01657503,-9646.328,-1408.12,-3350.995,-7502.708,-1039.217,-2380.339,1
0.01658057,-9645.984,-1347.131,-3325.661,-7502.387,-956.7039,-2360.526,1
0.01658057,-9624.637,-1305.373,-3259.448,-7494.904,-964.2338,-2298.274,1
0.01657735,-9639.973,-1324.843,-3254.1,-7497.764,-974.774,-2281.107,1
0.0165759,-9655.432,-1324.348,-3204.649,-7513.972,-970.7991,-2279.324,1
0.0165759,-9647.805,-1318.256,-3214.7,-7503.628,-991.3347,-2288.147,1
0.01658046,-9599.961,-1292.094,-3251.625,-7475.929,-961.0389,-2326.824,1
0.01657588,-9606.58,-1300.233,-3242.523,-7476.677,-952.8739,-2346.239,1
0.01657999,-9641.599,-1282.08,-3250.766,-7494.642,-956.4574,-2334.552,1
0.01658132,-9622.09,-1291.757,-3295.023,-7488.585,-967.4377,-2328.482,1
0.01657698,-9634.102,-1298.156,-3275.916,-7493.353,-945.1002,-2317.721,1
0.01657595,-9612.263,-1251.365,-3261.047,-7472.243,-899.0709,-2327.989,1
0.01657595,-9601.729,-1217.643,-3219.082,-7464.287,-860.4265,-2338.907,1
0.01657529,-9613.484,-1220.716,-3265.197,-7482.239,-912.576,-2349.267,1
0.01657769,-9627.271,-1274.287,-3243.171,-7483.939,-921.1163,-2298.897,1
0.01657769,-9628.574,-1274.349,-3214.7,-7498.229,-955.9426,-2267.591,1
0.01657647,-9591.845,-1271.173,-3219.782,-7456.864,-951.0899,-2282.231,1
0.01657647,-9602.418,-1299.663,-3235.601,-7473.938,-984.2672,-2314.415,1
0.01657756,-9667.626,-1330.534,-3242.565,-7519.347,-1026.596,-2249.705,1
0.01657068,-9629.087,-1367.143,-3186.551,-7489.747,-1043.796,-2151.45,1
0.01657645,-9582.035,-1358.932,-3161.687,-7449.386,-1014.505,-2163.703,1
0.0165772,-9552.427,-1319.68,-3195.931,-7431.393,-960.8065,-2239.602,1
0.0165772,-9552.22,-1330.661,-3198.835,-7440.359,-982.2336,-2262.205,1
0.01658084,-9583.683,-1312.677,-3235.075,-7451.294,-963.4754,-2282.208,1
0.01658084,-9609.885,-1317.188,-3282.477,-7480.257,-967.7894,-2329.154,1
0.01657952,-9606.548,-1318.293,-3291.583,-7468.814,-973.6336,-2311.771,1
0.01657997,-9576.743,-1305.042,-3285.822,-7450.499,-965.1791,-2301.641,1
0.01657997,-9570.587,-1306.371,-3303.399,-7441.477,-974.5485,-2322.952,1
0.01657928,-9567.14,-1278.114,-3268.538,-7438.974,-946.9032,-2294.195,1
0.01658187,-9546.526,-1262.63,-3290.781,-7441.093,-930.2363,-2368.732,1
0.01658187,-9608.133,-1296.6,-3313.241,-7479.409,-965.498,-2348.786,1
0.01658104,-9635.171,-1346.885,-3348.682,-7491.106,-978.146,-2350.682,1
0.01658083,-9605.19,-1324.32,-3352.047,-7463.635,-964.1284,-2375.675,1
0.01658083,-9609.622,-1278.111,-3342.044,-7467.005,-939.9094,-2355.259,1
0.01657811,-9587.801,-1322.849,-3351.662,-7463.614,-984.1596,-2356.568,1
0.01658095,-9577.479,-1280.211,-3361.298,-7455.764,-972.029,-2418.82,1
0.01657776,-9602.557,-1289.806,-3357.632,-7470.54,-964.1689,-2450.01,1
0.01657842,-9631.564,-1319.28,-3353.42,-7488.223,-976.4598,-2372.472,1
0.01657842,-9547.483,-1284.321,-3447.872,-7423.916,-962.7378,-2401.212,1
0.0165778,-9518.407,-1269.443,-3411.847,-7401.93,-922.6345,-2466.368,1
0.01657474,-9562.817,-1303.171,-3395.923,-7436.127,-969.3228,-2411.689,1
0.01657474,-9575.809,-1317.847,-3420.286,-7441.708,-984.6569,-2425.352,1
0.01657836,-9556.864,-1332.821,-3377.274,-7440.585,-1013.172,-2410.24,1
0.01657832,-9611.483,-1363.334,-3438.682,-7477.928,-1019.951,-2462.249,1
0.01657795,-9608.924,-1323.966,-3452.645,-7471.417,-987.451,-2433.773,1
0.01657795,-9602.733,-1364.386,-3448.262,-7466.599,-1013.268,-2399.954,1
0.01657551,-9636.647,-1316.377,-3362.365,-7492.428,-968.6769,-2360.526,1
0.01657768,-9606.381,-1295.562,-3378.828,-7469.143,-973.3151,-2362.41,1
0.01657768,-9608.443,-1305.827,-3426.869,-7475.103,-989.7985,-2386.13,1
0.01657925,-9583.034,-1323.984,-3434.959,-7455.649,-975.1294,-2413.535,1
0.01657991,-9580.372,-1272.862,-3463.524,-7453.662,-943.2998,-2426.313,1
0.0165777,-9563.395,-1281.907,-3423.207,-7431.891,-963.6702,-2380.901,1
0.0165777,-9554.616,-1298.707,-3374.01,-7425.32,-967.9969,-2406.193,1
0.01657899,-9540.881,-1306.487,-3428.855,-7423.847,-967.8768,-2436.73,1
0.0165777,-9512.232,-1306.41,-3432.126,-7402.144,-969.2169,-2445.713,1
0.0165777,-9508.072,-1294.152,-3437.717,-7394.794,-956.27,-2449.534,1
0.01657623,-9549.242,-1292.061,-3461.509,-7426.474,-960.8303,-2493.001,1
0.01657439,-9573.571,-1352.105,-3500.012,-7449.545,-986.2196,-2489.964,1
0.01657773,-9553.526,-1299.391,-3484.029,-7425.339,-954.152,-2471.327,1
0.01657773,-9542.81,-1254.96,-3512.719,-7421.649,-922.5125,-2486.35,1
0.01657901,-9572.199,-1359.471,-3503.963,-7444.167,-991.1511,-2485.736,1
0.01657829,-9592.724,-1334.29,-3481.075,-7464.227,-1008.03,-2448.077,1
0.016577,-9547.024,-1292.777,-3445.5,-7433.652,-1011.37,-2397.57,1
0.01657877,-9542.506,-1310.792,-3421.344,-7421.396,-1003.746,-2456.235,1
0.01657835,-9550.938,-1291.592,-3477.361,-7427.921,-956.8994,-2470.485,1
0.01657775,-9544.904,-1297.911,-3428.308,-7423.36,-964.5801,-2422.66,1
0.01657547,-9530.4,-1269.501,-3477.086,-7416.784,-927.9863,-2458.323,1
0.01657633,-9522.149,-1245,-3447.787,-7410.587,-907.5305,-2491.8,1
0.01657904,-9547.445,-1244.017,-3443.4,-7425.587,-913.4123,-2453.728,1
0.01657548,-9541.229,-1277.559,-3488.473,-7416.433,-954.7485,-2480.658,1
0.01657548,-9533.168,-1303.708,-3514.469,-7423.626,-949.2642,-2519.457,1
0.01657814,-9534.296,-1270.694,-3502.892,-7424.536,-937.6221,-2499.262,1
0.01657429,-9528.387,-1282.918,-3516.042,-7406.77,-957.0092,-2524.075,1
0.01658104,-9503.797,-1264.536,-3520.382,-7392.518,-944.0923,-2545.978,1
0.01657595,-9555.093,-1282.419,-3525.783,-7436.266,-943.4155,-2502.189,1
0.01657802,-9563.045,-1267.531,-3502.056,-7437.841,-938.1735,-2472.01,1
0.01657802,-9507.672,-1300.149,-3497.755,-7395.498,-981.4198,-2496.676,1
0.01209546,-9493.127,-1296.594,-3462.288,-7380.109,-972.51,-2528.803,1
0.01657588,-9509.244,-1289.703,-3516.738,-7388.174,-939.2126,-2584.71,1
0.0165793,-9558.752,-1275.319,-3554.806,-7439.378,-945.9887,-2529.837,1
0.01657856,-9546.881,-1270.583,-3530.285,-7434.637,-943.5244,-2502.594,1
0.01657856,-9516.595,-1282.047,-3537.034,-7398.161,-944.2974,-2543.668,1
0.03315465,-9502.053,-1283.77,-3516.228,-7387.149,-940.6497,-2517.361,1
0.01657638,-9499.304,-1294.296,-3493.81,-7398.479,-959.2331,-2499.362,1
0.0165772,-9504.761,-1286.324,-3522.165,-7398.313,-969.7228,-2548.738,1
0.01657942,-9573.401,-1305.387,-3533.239,-7446.355,-966.5047,-2584.196,1
0.01658025,-9594.484,-1331.649,-3526.916,-7453.402,-1019.989,-2511.291,1
0.01657966,-9553.115,-1333.574,-3503.194,-7430.463,-1035.62,-2476.542,1
0.01657952,-9481.204,-1329.764,-3481.132,-7375.511,-1000.055,-2491.104,1
0.01657952,-9493.645,-1301.278,-3458.056,-7385.229,-958.2321,-2516.803,1
0.01658057,-9533.37,-1306.953,-3534.325,-7420.133,-959.271,-2547.138,1
0.01658057,-9504.675,-1352.074,-3608.352,-7398.2,-1004.528,-2591.308,1
0.0165791,-9534.497,-1354.405,-3597.448,-7425.48,-987.5651,-2567.085,1
0.0165791,-9535.393,-1285.886,-3512.146,-7417.251,-933.4698,-2476.499,1
0.01658242,-9524.631,-1245.731,-3510.512,-7417.872,-926.2309,-2444.653,1
0.0165774,-9511.81,-1249.298,-3484.126,-7399.219,-897.8922,-2508.077,1
0.0165774,-9534.154,-1224.556,-3501.77,-7420.773,-898.1032,-2519.977,1
0.01657681,-9546.188,-1238.316,-3544.137,-7425.49,-908.3404,-2522.98,1
0.01658381,-9525.356,-1227.539,-3554.107,-7409.52,-915.8275,-2538.266,1
0.01658381,-9505.393,-1252.304,-3519.151,-7394.3,-944.3359,-2533.059,1
0.01657745,-9538.149,-1279.726,-3487.441,-7410.535,-958.6727,-2496.642,1
0.01657918,-9522.861,-1272.932,-3552.745,-7412.135,-945.6878,-2537.476,1
0.01658114,-9519.664,-1259.67,-3527.388,-7405.272,-926.7066,-2519.387,1
0.01657787,-9517.765,-1252.97,-3522.388,-7408.283,-922.2202,-2522.483,1
0.01657946,-9522.311,-1283.972,-3520.321,-7407.346,-954.8381,-2506.497,1
0.01657685,-9516.068,-1294.485,-3475.991,-7398.163,-963.0812,-2508.421,1
0.01657727,-9564.476,-1274.111,-3470.944,-7448.454,-947.7139,-2489.457,1
0.01657727,-9576.211,-1283.388,-3453.27,-7457.237,-952.5743,-2467.818,1
0.01656657,-9588.264,-1263.808,-3524.461,-7466.237,-921.8077,-2537.067,1
0.01659826,-9553.929,-1246.981,-3554.113,-7435.373,-921.2285,-2536.612,1
0.01657221,-9561.254,-1273.239,-3514.83,-7432.044,-949.134,-2533.616,1
0.01657694,-9550.887,-1289.044,-3502.517,-7428.502,-964.7761,-2502.291,1
0.01657742,-9580.277,-1319.76,-3577.185,-7459.775,-967.3627,-2623.872,1
0.01657628,-9600.737,-1332.66,-3530.291,-7470.809,-974.2905,-2511.257,1
0.01657918,-9603.43,-1283.495,-3547.101,-7468.228,-962.6193,-2484.496,1
0.01657607,-9574.673,-1305.549,-3491.197,-7454.958,-958.9318,-2489.771,1
0.01658197,-9568.866,-1303.767,-3474.333,-7446.022,-968.0334,-2487.837,1
0.01657795,-9534.296,-1296.258,-3489.642,-7424.034,-950.3205,-2515.195,1
0.01657869,-9581.812,-1271.608,-3507.321,-7469.26,-953.6519,-2529.571,1
0.01658088,-9578.65,-1268.659,-3507.226,-7449.004,-947.0062,-2504.549,1
0.01657537,-9544.252,-1296.862,-3503.613,-7422.693,-948.6476,-2491.856,1
0.01658532,-9528.627,-1290.348,-3512.797,-7406.419,-978.556,-2493.672,1
0.01657945,-9518.535,-1313.177,-3502.041,-7403.292,-956.3115,-2549.197,1
0.01657411,-9535.14,-1303.838,-3506.818,-7420.556,-972.1115,-2522.586,1
0.01658023,-9561.723,-1305.894,-3488.645,-7436.483,-981.9221,-2471.868,1
0.01657825,-9536.219,-1292.266,-3504.242,-7416.982,-969.2174,-2508.01,1
0.01657657,-9551.27,-1282.517,-3488.724,-7419.677,-940.1539,-2529.411,1
0.01657657,-9583.27,-1241.503,-3488.489,-7452.989,-905.0377,-2494.608,1
0.01657774,-9536.64,-1244.766,-3454.165,-7412.843,-919.3863,-2464.328,1
0.01657774,-9550.297,-1255.925,-3497.667,-7432.21,-923.3589,-2504.112,1
0.01657789,-9549.616,-1281.242,-3497.115,-7427.259,-956.0903,-2488.184,1
0.01658016,-9546.945,-1307.384,-3437.325,-7429.663,-972.972,-2466.68,1
0.01657791,-9552.121,-1309.108,-3484.228,-7429.194,-962.8162,-2533.156,1
0.01657964,-9565.056,-1271.331,-3471.919,-7430.204,-975.7147,-2499.052,1
0.01657964,-9532.563,-1282.289,-3504.57,-7418.666,-977.9611,-2535.378,1
0.01657894,-9550.388,-1289.494,-3545.565,-7427.908,-960.1471,-2584.842,1
0.01657829,-9606.21,-1309.067,-3496.719,-7474.952,-947.095,-2520.953,1
0.01657829,-9603.224,-1272.454,-3496.527,-7472.451,-938.2266,-2492.265,1
0.01657837,-9556.799,-1292.325,-3451.351,-7432.397,-931.5863,-2444.816,1
0.01657837,-9541.663,-1297.249,-3457.379,-7420.866,-940.9192,-2488.992,1
0.01657766,-9520.73,-1273.377,-3478.026,-7404.965,-933.7758,-2497.661,1
0.01657796,-9512.037,-1282.379,-3520.15,-7398.479,-946.2537,-2543.143,1
0.01657939,-9565.961,-1291.947,-3439.593,-7439.806,-986.2498,-2435.24,1
0.01657939,-9537.722,-1283.694,-3474.685,-7422.623,-984.8367,-2430.447,1
0.01657448,-9510.212,-1277.002,-3492.25,-7397.239,-927.594,-2537.364,1
0.01658016,-9576.241,-1290.865,-3444.376,-7461.091,-953.2137,-2494.054,1
0.01657844,-9600.609,-1302.713,-3499.936,-7466.254,-990.2165,-2459.563,1
0.01657957,-9540.106,-1350.859,-3518.99,-7419.88,-1020.478,-2534.525,1
0.01657957,-9542.329,-1358.228,-3556.267,-7412.775,-1001.177,-2588.287,1
0.0165776,-9576.84,-1338.786,-3521.728,-7448.047,-991.9335,-2502.58,1
0.01657772,-9521.771,-1331.567,-3509.225,-7410.349,-1021.462,-2473.878,1
0.01657772,-9506.324,-1342.919,-3470.681,-7394.246,-970.1362,-2515.403,1
0.01657716,-9549.569,-1312.417,-3459.305,-7418.567,-972.5494,-2508.966,1
0.01657552,-9529.428,-1305.408,-3522.022,-7407.633,-974.9592,-2490.16,1
0.01657894,-9520.027,-1298.406,-3529.745,-7400.533,-971.2901,-2499.346,1
0.0165789,-9540.18,-1300.065,-3507.906,-7420.45,-961.2375,-2525.539,1
0.01658023,-9569.836,-1324.548,-3511.27,-7447.522,-987.7313,-2532.467,1
0.01657723,-9564.96,-1337.01,-3520.915,-7443.681,-1030.412,-2531.434,1
0.01657723,-9553.063,-1353.99,-3534.426,-7430.081,-1042.361,-2519.22,1
0.01657819,-9557.026,-1340.745,-3474.024,-7428.653,-990.4843,-2462.781,1
0.01657936,-9549.26,-1320.906,-3430.997,-7422.699,-955.6213,-2448.395,1
0.01657936,-9540.277,-1306.472,-3456.838,-7420.281,-956.5834,-2489.728,1
0.01657906,-9576.125,-1321.707,-3514.077,-7452.106,-973.5664,-2513.859,1
0.01657421,-9540.545,-1303.704,-3478.185,-7420.396,-977.0067,-2491.919,1
0.01657539,-9526.276,-1319.675,-3512.399,-7418.407,-989.7918,-2518.364,1
0.0165758,-9523.721,-1331.652,-3522.587,-7407.664,-996.1383,-2552.643,1
0.01658151,-9575.413,-1344.199,-3457.809,-7442.783,-1000.391,-2463.971,1
0.01657731,-9537.938,-1280.889,-3447.71,-7414.071,-940.6171,-2449.242,1
0.01657728,-9552.563,-1288.492,-3500.913,-7434.146,-934.6975,-2521.363,1
0.0165773,-9552.392,-1275.269,-3519.49,-7425.121,-937.7839,-2511.921,1
0.0165773,-9565.412,-1313.259,-3437.94,-7426.189,-989.6581,-2421.054,1
0.01657909,-9536.28,-1331.879,-3514.906,-7417.208,-994.9601,-2564.568,1
0.01657791,-9559.366,-1315.898,-3472.79,-7430.448,-969.9271,-2514.473,1
0.01657791,-9528.478,-1321.108,-3506.443,-7411.266,-1009.913,-2480.897,1
0.01657379,-9495.039,-1346.084,-3500.682,-7381.387,-982.632,-2507.525,0
0.01658381,-9521.123,-1341.731,-3499.979,-7397.073,-979.7856,-2538.52,0
0.01658381,-9527.694,-1332.848,-3504.769,-7402.183,-999.8165,-2493.882,0
0.06631263,-9527.236,-1348.108,-3517.113,-7415.186,-1019.977,-2503.855,0
0.01657721,-9528.355,-1325.728,-3531.342,-7411.632,-983.6404,-2548.452,0
0.01657835,-9545.604,-1310.092,-3505.482,-7429.256,-947.0585,-2536.845,0
0.01657835,-9573.444,-1315.439,-3516.454,-7446.023,-983.1055,-2482.553,0
0.01657645,-9552.897,-1295.417,-3500.395,-7434.628,-954.54,-2499.959,0
0.01657808,-9574.021,-1296.932,-3534.794,-7450.693,-953.0438,-2566.12,0
0.01657808,-9581.75,-1319.161,-3576.378,-7447.598,-969.8389,-2574.119,0
0.01657712,-9562.627,-1323.167,-3519.055,-7437.304,-988.1375,-2508.199,0
0.01630317,-9548.045,-1307.223,-3516.231,-7430.553,-969.8317,-2498.58,0
0.03343175,-9536.229,-1309.863,-3455.734,-7417.105,-966.899,-2471.275,0
0.01657688,-9547.04,-1288.82,-3423.988,-7425.413,-947.5479,-2451.976,0
0.01657473,-9558.949,-1275.237,-3466.039,-7430.08,-960.2845,-2479.678,0
0.03315875,-9553.631,-1322.766,-3476.306,-7421.561,-977.2842,-2494.011,0
0.01658332,-9531.604,-1325.766,-3525.009,-7418.047,-967.6203,-2535.678,0
0.0165772,-9551.132,-1295.077,-3535.712,-7424.149,-945.5551,-2513.239,0
0.01657797,-9545.832,-1311.514,-3443.093,-7433.396,-979.7969,-2474.29,0
0.01657727,-9539.606,-1298.929,-3455.572,-7419.769,-984.0093,-2475.977,0
0.01657727,-9554.688,-1307.684,-3479.171,-7431.314,-979.329,-2497.18,0
0.01658055,-9563.498,-1329.564,-3495.437,-7429.149,-978.0125,-2520.981,0
0.01657749,-9548.505,-1340.681,-3431.618,-7439.822,-1007.766,-2447.003,0
0.01658135,-9552.218,-1331.187,-3420.655,-7424.905,-1005.64,-2422.817,0
0.01658135,-9524.181,-1340.53,-3451.194,-7407.936,-1007.409,-2477.721,0
0.01657879,-9515.724,-1361.703,-3513.255,-7397.149,-1018.749,-2516.308,0
0.01657956,-9507.603,-1358.019,-3473.96,-7395.511,-1014.102,-2490.595,0
0.01657852,-9516.464,-1331.054,-3505.239,-7402.412,-1006.678,-2514.755,0
0.01656286,-9572.8,-1314.242,-3512.54,-7436.641,-935.3617,-2527.139,0
0.01656286,-9576.728,-1336.237,-3469.802,-7448.383,-1019.881,-2397.439,0
0.01657911,-9509.133,-1337.703,-3468.246,-7392.216,-1016.193,-2438.877,0
0.01657714,-9526.101,-1341.438,-3440.297,-7396.451,-987.6656,-2526.244,0
0.01657714,-9533.863,-1340.624,-3564.782,-7406.89,-993.1193,-2554.782,0
0.01657663,-9545.217,-1346.987,-3577.409,-7428.885,-1005.705,-2554.662,0
0.03315737,-9535.426,-1335.506,-3539.302,-7421.369,-989.1209,-2538.536,0
0.01657607,-9552.935,-1327.243,-3555.568,-7430.303,-980.324,-2575.977,0
0.01657651,-9606.242,-1334.951,-3477.593,-7470.936,-997.8799,-2457.465,0
0.01657592,-9579.479,-1321.785,-3546.567,-7436.958,-994.7339,-2524.977,0
0.01657451,-9542.283,-1333.796,-3487.338,-7417.334,-975.3931,-2511.205,0
0.0165759,-9570.503,-1323.453,-3474.616,-7434.481,-991.3494,-2479.098,0
0.0165759,-9556.978,-1309.1,-3513.317,-7437.387,-964.9,-2506.555,0
0.04973118,-9553.626,-1293.389,-3511.049,-7430.363,-934.4554,-2518.646,0
0.08288264,-9548.239,-1269.176,-3500.318,-7426.242,-937.2151,-2490.191,0
0.08288264,-9577.225,-1310.293,-3497.412,-7439.519,-986.267,-2489.404,0
0.03315164,-9539.67,-1295.782,-3472.49,-7401.911,-990.9744,-2488.154,0
0.01658053,-9503.218,-1328.209,-3472.745,-7383.042,-998.019,-2501.742,0
0.01657304,-9510.033,-1302.512,-3506.474,-7406.171,-957.287,-2547.486,0
0.01657304,-9527.864,-1293.569,-3494.843,-7406.603,-926.451,-2566.733,0
0.01657621,-9569.25,-1270.131,-3481.75,-7442.688,-943.897,-2501.498,0
0.01686058,-9556.881,-1279.224,-3499.438,-7428.703,-944.0703,-2512.844,0
0.0163106,-9558.313,-1260.651,-3524.734,-7425.322,-946.9069,-2550.422,0
0.0163106,-9535.749,-1301.744,-3562.214,-7412.497,-983.3991,-2596.887,0
0.01658351,-9533.732,-1308.591,-3519.913,-7415.436,-974.7337,-2556.529,0
0.01657424,-9537.133,-1318.537,-3539.864,-7418.07,-971.4897,-2550.61,0
0.01657424,-9565.761,-1334.838,-3480.925,-7426.651,-984.4424,-2492.762,0
0.01657524,-9526.847,-1342.431,-3474.454,-7414.612,-1003.152,-2500.435,0
0.01657867,-9525.442,-1348.843,-3474.928,-7404.733,-1019.805,-2487.079,0
0.01657596,-9554.515,-1335.919,-3474.824,-7422.568,-1010.862,-2500.992,0
0.01657335,-9536.008,-1348.888,-3483.365,-7421.701,-986.8567,-2545.552,0
0.01658917,-9537.57,-1347.041,-3448.768,-7422.903,-1013.064,-2463.722,0
0.01658036,-9507.475,-1328.202,-3452.822,-7382.209,-1003.821,-2460.953,0
0.01658036,-9537.412,-1342.12,-3469.749,-7414.081,-995.8386,-2501.217,0
0.01657436,-9544.098,-1345.918,-3476.264,-7423.62,-1003.389,-2501.259,0
0.01657553,-9558.017,-1347.189,-3448.638,-7429.783,-1012.315,-2476.883,0
0.01657612,-9534.966,-1340.634,-3441.203,-7416.549,-994.4819,-2474.675,0
0.01657612,-9550.328,-1360.186,-3399.79,-7423.86,-1009.657,-2486.416,0
0.01658003,-9569.183,-1322.956,-3433.357,-7438.217,-999.9725,-2467.09,0
0.01657896,-9519.138,-1341.034,-3436.438,-7404.344,-1027.631,-2468.757,0
0.01657868,-9537.608,-1353.255,-3465.536,-7409.671,-1001.975,-2517.674,0
0.01657633,-9559.442,-1333.559,-3416.514,-7435.229,-998.2474,-2459.419,0
0.01657545,-9557.882,-1341.791,-3436.348,-7425.098,-999.83,-2477.504,0
0.01657721,-9548.971,-1339.664,-3477.971,-7418.252,-999.8536,-2498.55,0
0.01657674,-9548.155,-1344.104,-3484.042,-7422.057,-995.4798,-2504.223,0
0.01657674,-9575.43,-1351.826,-3500.481,-7451.728,-991.6733,-2528.04,0
0.01657868,-9575.851,-1325.632,-3478.66,-7447.483,-986.8973,-2500.971,0
0.01657923,-9555.866,-1326.463,-3440.166,-7427.688,-996.1707,-2458.807,0
0.01657475,-9534.049,-1343.561,-3426.862,-7419.884,-1002.323,-2467.07,0
0.01657765,-9577.981,-1385.907,-3385.696,-7449.041,-1031.573,-2445.198,0
0.01657475,-9580.248,-1380.419,-3463.383,-7450.66,-1023.049,-2483.983,0
0.01657286,-9592.452,-1388.156,-3433.234,-7455.437,-1042.95,-2471.747,0
0.01657286,-9613.694,-1395.452,-3412.862,-7471.519,-1038.927,-2442.42,0
0.01657639,-9561.545,-1371.15,-3392.804,-7435.943,-1042.368,-2439.467,0
0.01656441,-9580.847,-1373.676,-3378.572,-7446.258,-1049.733,-2437.945,0
0.01657906,-9553.238,-1337.099,-3385.387,-7425.132,-1020.038,-2444.746,0
0.01657906,-9557.065,-1343.211,-3412.922,-7423.681,-1020.869,-2460.386,0
0.01658072,-9611.395,-1329.47,-3468.155,-7465.199,-994.3414,-2493.18,0
0.01657693,-9596.481,-1341.401,-3452.122,-7462.512,-1001.896,-2481.905,0
0.01657741,-9606.493,-1336.166,-3411.287,-7465.613,-1004.049,-2452.048,0
0.01657741,-9578.823,-1373.323,-3369.689,-7444.365,-1024.99,-2409.031,0
0.01657891,-9573.625,-1361.582,-3413.471,-7435.959,-1016.783,-2456.01,0
0.01658222,-9561.675,-1388.506,-3350.888,-7435.725,-1037.864,-2385.844,0
0.01658222,-9561.546,-1339.154,-3428.227,-7435.673,-1022.499,-2456.281,0
0.01657564,-9603.647,-1383.916,-3370.237,-7463.422,-1043.123,-2436.355,0
0.01658061,-9574.924,-1360.81,-3407.193,-7436.952,-1035.338,-2461.656,0
0.01658061,-9564.646,-1378.073,-3402.182,-7433.557,-1043.769,-2490.223,0
0.01657944,-9586.467,-1398.834,-3469.408,-7445.828,-1075.037,-2570.554,0
0.01657812,-9590.29,-1367.18,-3452.969,-7448.714,-1029.355,-2511.375,0
0.01657969,-9555.896,-1362.109,-3421.876,-7431.28,-1033.235,-2429.311,0
0.01658032,-9537.085,-1363.971,-3423.396,-7408.131,-1024.132,-2454.109,0
0.01657955,-9562.731,-1380.281,-3396.994,-7432.296,-1011.948,-2453.094,0
0.0165796,-9562.435,-1347.695,-3355.316,-7440.964,-1000.929,-2401.977,0
0.01658074,-9580.159,-1332.717,-3354.135,-7450.071,-1005.381,-2388.89,0
0.01658198,-9557.17,-1353.968,-3375.428,-7436.904,-1018.667,-2420.655,0
0.01657851,-9563.741,-1340.902,-3397.675,-7428.661,-989.3304,-2476.265,0
0.01657868,-9589.592,-1339.609,-3377.054,-7452.859,-998.7054,-2476.534,0
0.01663952,-9586.989,-1366.817,-3398.303,-7455.226,-1011.249,-2455.637,0
0.01657883,-9592.052,-1338.744,-3426.612,-7459.021,-1001.165,-2502.724,0
0.01657754,-9605.95,-1342.178,-3432.578,-7465.117,-1019.091,-2461.966,0
0.01658001,-9571.723,-1338.197,-3397.971,-7438.875,-988.9276,-2490.593,0
0.01657907,-9547.229,-1348.432,-3413.187,-7420.207,-1012.618,-2474.735,0
0.01658127,-9571.833,-1343.314,-3432.016,-7439.107,-1002.625,-2515.096,0
0.01658127,-9602.935,-1374.478,-3371.899,-7467.291,-1034.484,-2440.512,0
0.01657853,-9603.341,-1391.008,-3394.703,-7463.051,-1021.243,-2521.76,0
0.01657464,-9597.775,-1339.778,-3424.679,-7458.706,-988.1341,-2525.151,0
0.01657464,-9593.271,-1330.039,-3398.3,-7459.634,-966.3947,-2466.079,0
0.01628826,-9607.223,-1334.606,-3336.497,-7470.232,-980.5604,-2379.065,0
0.01658018,-9640.713,-1344.448,-3258.071,-7495.698,-990.1086,-2329.813,0
0.01658148,-9653.337,-1345.159,-3233.181,-7500.687,-1002.051,-2293.967,0
0.01657908,-9620.355,-1367.608,-3239.677,-7479.712,-1020.306,-2332.552,0
0.01658078,-9636.327,-1363.778,-3283.041,-7496.247,-1019.797,-2355.903,0
0.0165808,-9653.261,-1368.863,-3258.032,-7500.16,-1015.309,-2328.249,0
0.01658113,-9628.373,-1368.692,-3238.369,-7476.553,-1010.138,-2299.773,0
0.01658078,-9590.3,-1368.017,-3211.499,-7456.3,-1010.417,-2269.738,0
0.01658078,-9593.709,-1382.599,-3208.993,-7450.119,-1030.378,-2264.192,0
0.01657941,-9548.067,-1387.801,-3206.366,-7424.219,-1005.442,-2301.167,0
0.01657765,-9592.726,-1367.549,-3257.207,-7454.099,-1007.106,-2348.359,0
0.01657765,-9597.919,-1390.976,-3301.204,-7462.532,-1024.707,-2371.797,0
0.01657843,-9599.948,-1376.66,-3330.17,-7464.084,-1015.903,-2405.207,0
0.01658007,-9593.378,-1323.356,-3345.585,-7450.202,-983.491,-2481.318,0
0.01658139,-9633.75,-1393.976,-3305.985,-7481.06,-953.9141,-2413.886,0
0.01658139,-9638.42,-1293.843,-3270.871,-7484.506,-965.3303,-2336.584,0
0.01658222,-9578.891,-1349.363,-3270.569,-7438.943,-1029.272,-2328.763,0
0.01658442,-9564.069,-1349.526,-3270.293,-7427.748,-1010.238,-2388.261,0
0.01658442,-9573.395,-1371.507,-3319.189,-7439.459,-1029.507,-2401.504,0
0.01658244,-9565.85,-1396.135,-3302.613,-7429.367,-1053.199,-2362.974,0
0.01658258,-9574.873,-1401.892,-3262.047,-7440.813,-1057.96,-2281.063,0
0.01658251,-9577.062,-1431.924,-3207.382,-7442.552,-1079.033,-2240.726,0
0.01658251,-9597.281,-1432.254,-3149.285,-7453.606,-1058.511,-2238.38,0
0.01658372,-9586.891,-1418.539,-3196.8,-7454.517,-1056.7,-2293.741,0
0.01658427,-9597.559,-1387.084,-3244.998,-7458.229,-1018.97,-2306.136,0
0.01658408,-9590.4,-1399.203,-3260.129,-7448.304,-1019.099,-2393.39,0
0.01658326,-9608.291,-1398.184,-3294.662,-7466.402,-1033.267,-2387.481,0
0.01658432,-9618.753,-1391.267,-3287.725,-7474.319,-1037.366,-2334.918,0
0.01657931,-9599.228,-1382.189,-3265.166,-7454.883,-1029.577,-2331.235,0
0.01659217,-9587.662,-1371.805,-3305.578,-7450.481,-1010.861,-2365.986,0
0.01658339,-9596.509,-1368.631,-3322.068,-7457.263,-1018.482,-2368.462,0
0.01658148,-9633.82,-1367.879,-3312.71,-7490.167,-1015.194,-2366.415,0
0.01658457,-9607.887,-1373.178,-3301.042,-7465.781,-1023.729,-2356.555,0
0.01658507,-9592.503,-1395.245,-3248.005,-7449.574,-1036.163,-2326.531,0
0.01658507,-9612.263,-1409.139,-3236.225,-7469.127,-1038.682,-2322.648,0
0.0165824,-9628.289,-1408.763,-3223.434,-7472.448,-1042.742,-2295.58,0
0.01658235,-9614.123,-1396.274,-3236.17,-7470.412,-1030.356,-2312.996,0
0.01658235,-9599.226,-1335.809,-3220.836,-7450.135,-991.9368,-2275.938,0
0.01658202,-9597.035,-1365.313,-3182.733,-7466.227,-999.6987,-2274.223,0
0.01658436,-9607.145,-1352.525,-3169.539,-7465.085,-1005.541,-2258.624,0
0.01658623,-9591.853,-1378.151,-3250.99,-7448.966,-1028.525,-2312.254,0
0.01658354,-9592.861,-1380.221,-3278.752,-7458.653,-1024.825,-2367.226,0
0.01658354,-9637.97,-1400.64,-3237.559,-7488.679,-1041.507,-2303.744,0
0.01657949,-9638.656,-1411.101,-3207.849,-7493.493,-1055.216,-2282.512,0
0.01658425,-9657.705,-1426.995,-3216.138,-7512.327,-1060.845,-2275.711,0
0.01658716,-9653.076,-1395.679,-3193.359,-7495.294,-1045.083,-2264.284,0
0.01658523,-9621.059,-1400.178,-3213.628,-7470.72,-1041.27,-2292.976,0
0.01658278,-9603.353,-1396.106,-3199.117,-7470.5,-1027.041,-2306.068,0
0.01658238,-9638.677,-1373.028,-3264.604,-7488.641,-1014.414,-2319.288,0
0.01658238,-9611.494,-1390.031,-3214.79,-7463.381,-1036.334,-2301.373,0
