Time,Ax,Ay,Az,Gx,Gy,Gz
0.0165593,0,0,0,0,0,0,0
0.215322,-7815.816,1954.788,-6113.763,-6096.622,1209.997,-3762.013,0
0.215322,-10451.39,2161.131,-7773.931,-7429.769,1099.261,-4094.404,0
0.1490772,-10565.58,1934.17,-7132.008,-7882.278,1290.043,-4121.721,0
0.1490772,-10092.21,1897.28,-6516.117,-7937.712,1240.215,-4273.583,0
0.1490772,-9805.688,1837.114,-6406.982,-7987.843,1182.148,-4457.004,0
0.1490772,-9665.081,1771.514,-6192.542,-8050.069,1215.696,-4480.3,0
0.1490772,-9565.121,1713.587,-6071.899,-8037.757,1307.562,-4558.429,0
0.1490772,-9474.094,1798.495,-6122.706,-7972.142,1275.037,-4557.794,0
0.1490772,-9390.457,1823.9,-6132.525,-7868.622,1267.852,-4556.359,0
0.1490772,-9382.459,1832.464,-6156.374,-7807.992,1310.055,-4549.817,0
0.1490772,-9335.356,1843.033,-6210.818,-7729.094,1348.764,-4528.683,0
0.1490772,-9210.916,1875.364,-6149.791,-7613.723,1429.089,-4402.865,0
0.1490772,-9160.269,1925.873,-6087.994,-7553.129,1416.778,-4484.525,0
0.1490772,-9078.745,1970.133,-6136.744,-7480.316,1414.806,-4415.702,0
0.1490643,-9019.336,1941.265,-6125.897,-7423.202,1256.068,-4473.335,0
0.03312007,-8892.012,1870.553,-6182.861,-7319.763,1163.787,-4442.635,0
0.03312007,-8886.736,1814.64,-6277.53,-7314.419,1373.129,-4622.577,0
0.03312007,-8908.278,2026.198,-6350.248,-7320.645,1824.8,-4559.505,0
0.03312007,-8985.375,2398.831,-6077.542,-7373.811,1932.751,-4359.704,0
0.04969875,-8941.86,2458.787,-5933.433,-7326.16,1676.505,-4167.321,0
0.01656401,-8786.609,2231.816,-5876.993,-7207.266,1602.032,-4204.788,0
0.01656401,-8658.774,2160.433,-5823.913,-7110.46,1583.257,-4083.056,0
0.01630302,-8662.809,2078.824,-5634.971,-7110.825,1655.616,-4126.557,0
0.01630302,-8657.291,2130.215,-5922.936,-7104.226,1462.083,-4388.829,0
0.0165623,-8687.694,2020.521,-6101.274,-7125.356,1324.637,-4307.864,0
0.01656171,-8691.799,1929.997,-5971.309,-7122.101,1376.048,-4115.603,0
0.01656179,-8594.37,1961.969,-5775.867,-7045.985,1317.442,-4274.139,0
0.01656159,-8552.54,1819.999,-5983.204,-7012.87,1264.286,-4476.85,0
0.01656326,-8531.764,1713.625,-6052.871,-7000.544,1199.905,-4421.576,0
0.01656139,-8548.138,1709.743,-6029.259,-7016.742,1094.957,-4375.529,0
0.01656139,-8538.728,1731.437,-6040.705,-7008.834,995.8143,-4549.831,0
0.01656336,-8600.714,1695.59,-6197.268,-7046.679,1246.624,-4528.276,0
0.01656384,-8642.184,1907.106,-6228.075,-7077.575,1366.03,-4622.721,0
0.01656202,-8676.037,1977.297,-6211.303,-7111.445,1541.842,-4386.596,0
0.01656738,-8672.226,2073.507,-5982.063,-7103.214,1478.318,-4359.854,0
0.01655924,-8651.817,2021.923,-6050.074,-7091.3,1448.504,-4336.306,0
0.01656339,-8675.278,1970.936,-5956.492,-7104.162,1488.355,-4256.634,0
0.01656339,-8680.032,2006.596,-5910.091,-7098.302,1442.366,-4240.517,0
0.01656524,-8638.399,1993.218,-5952.356,-7074.83,1404.71,-4316.841,0
0.01657137,-8620.052,1950.924,-5965.39,-7060.471,1470.863,-4238.731,0
0.01657137,-8618.767,1967.024,-5900.209,-7050.383,1473.26,-4253.388,0
0.01656055,-8616.377,1975.276,-5893.967,-7061.659,1447.216,-4241.115,0
0.01656055,-8593.789,1921.938,-5931.373,-7044.225,1359.544,-4266.327,0
0.01657098,-8586.997,1909.275,-5910.898,-7030.093,1385.501,-4231.131,0
0.01657098,-8548.45,1908.232,-5894.14,-7009.502,1354.364,-4263.413,0
0.01656385,-8600.367,1872.397,-5933.417,-7044.802,1345.194,-4288.28,0
0.01656385,-8626.185,1870.081,-5931.402,-7059.979,1345.623,-4280.366,0
0.03312334,-8646.48,1896.138,-5914.281,-7066.433,1366.302,-4247.65,0
0.03312334,-8625.715,1883.282,-5950.292,-7059.229,1361.581,-4251.72,0
0.01666238,-8606.767,1908.613,-5939.034,-7049.065,1363.325,-4272.232,0
0.01657982,-8612.22,1856.839,-5929.26,-7053.174,1336.607,-4248.155,0
0.01657982,-8627.479,1821.109,-5930.845,-7064.751,1279.371,-4215.375,0
0.01668842,-8659.48,1810.946,-5926.938,-7089.059,1238.783,-4230.255,0
0.01656181,-8622.46,1809.172,-5911.847,-7047.277,1229.871,-4143.779,0
0.01656181,-8594.864,1785.095,-5879.198,-7039.475,1370.908,-4229.95,0
0.01658045,-8572.322,1857.777,-5965.283,-7017.884,1424.858,-4278.921,0
0.01658536,-8558.152,1877.872,-5923.962,-7007.206,1334.798,-4233.378,0
0.01657923,-8583.398,1803.394,-5924.596,-7031.085,1301.785,-4261.332,0
0.01657923,-8619.461,1808.291,-5986.969,-7058.664,1314.911,-4257.966,0
0.01603563,-8624.971,1877.248,-5951.01,-7058.345,1358.867,-4213.76,0
0.01658123,-8596.932,1875.368,-5937.155,-7032.417,1483.086,-4147.014,0
0.01658071,-8553.852,1977.868,-5886.285,-7008.43,1653.757,-4074.342,0
0.01658071,-8538.993,2073.244,-5890.96,-6992.832,1666.382,-4151.22,0
0.01657734,-8550.551,2061.867,-5905.763,-7006.308,1528.704,-4108.474,0
0.01657734,-8535.542,1973.542,-5924.284,-6990.564,1478.135,-4107.378,0
0.01658195,-8490.46,1926.822,-5877.139,-6951.917,1384.359,-4133.36,0
0.01658053,-8488.939,1880.606,-5912.785,-6955.544,1364.14,-4146.95,0
0.01658174,-8485.402,1863.159,-5931.048,-6948.726,1368.229,-4278.693,0
0.01658174,-8455.021,1852.139,-6084.836,-6934.7,1321.558,-4411.067,0
0.01657743,-8432.482,1733.678,-6183.086,-6917.86,1311.514,-4476.358,0
0.01657998,-8349.124,1705.55,-6201.996,-6850.211,1266.524,-4639.24,0
0.01605304,-8403.303,1551.065,-6248.802,-6887.83,1067.577,-4718.441,0
0.01657941,-8588.753,1427.883,-6327.779,-7029.809,757.7943,-4659.504,0
0.01657899,-8645.042,1307.098,-6311.091,-7072.439,662.2399,-4639.562,0
0.01657879,-8678.247,1374.967,-6328.936,-7101.701,1083.145,-4581.125,0
0.01657058,-8602.536,1711.674,-6238.885,-7038.883,1313.532,-4599.241,0
0.01657058,-8525.391,1811.346,-6239.842,-6979.767,1457.464,-4654.397,0
0.01656828,-8544.476,1795.544,-6315.634,-6998.857,1463.452,-4685.202,0
0.01656828,-8592.325,1683.091,-6343.819,-7039.812,1219.905,-4584.522,0
0.03314582,-8706.563,1506.769,-6232.832,-7126.817,1025.949,-4506.655,0
0.03314582,-8750.38,1499.975,-6097.721,-7150.791,1006.224,-4320.565,0
0.01657128,-8659.439,1500.25,-6045.57,-7076.251,1171.588,-4394.048,0
0.01657013,-8568.859,1524.32,-6025.878,-7015.715,1275.16,-4431.261,0
0.01657013,-8574.679,1610.398,-6075.806,-7015.825,1249.589,-4328.213,0
0.03314495,-8588.137,1571.966,-6026.182,-7021.742,1230.482,-4349.775,0
0.01657012,-8610.419,1548.587,-6053.147,-7047.639,1170.093,-4510.953,0
0.01657497,-8598.035,1513.723,-6137.776,-7024.81,985.6226,-4461.715,0
0.01657471,-8617.116,1398.736,-6081.159,-7052.673,1046.203,-4401.803,0
0.01656701,-8653.854,1399.405,-6111.918,-7076.186,972.1495,-4496.92,0
0.01657241,-8643.932,1325.875,-6153.611,-7072.823,880.3124,-4491.243,0
0.0165728,-8669.982,1258.955,-6149.076,-7096.973,884.6308,-4432.214,0
0.0165728,-8684.877,1264.564,-6079.489,-7103.652,854.8683,-4327.568,0
0.01656947,-8728.472,1288.319,-5965.41,-7132.222,937.2069,-4296.247,0
0.01656947,-8692.314,1410.833,-5984.202,-7104.218,1075.747,-4252.518,0
0.01657232,-8677.286,1478.207,-5922.582,-7092.527,1138.871,-4155.152,0
0.01657368,-8681.481,1540.702,-5923.215,-7095.591,1172.5,-4149.622,0
0.01657209,-8649.339,1552.723,-5918.744,-7079.779,1134.461,-4127.367,0
0.01656891,-8630.563,1494.469,-5869.309,-7052.133,985.0009,-4036.143,0
0.0331465,-8555.2,1427.86,-5845.955,-7003.554,817.7463,-4038.996,0
0.01657045,-8544.954,1333.75,-5825.881,-6991.644,788.9657,-4068.38,0
0.01657045,-8499.652,1318.176,-5904.642,-6948.557,810.3522,-4175.851,0
0.01657004,-8471.631,1339.79,-5944.073,-6932.106,793.8253,-4232.032,0
0.01657004,-8475.126,1321.199,-5987.176,-6939.756,842.8967,-4302.403,0
0.01656965,-8482.584,1350.469,-6058.597,-6937.052,898.7244,-4380.007,0
0.01657155,-8540.765,1406.81,-6052.146,-6999.593,863.6367,-4442.73,0
0.01656931,-8521.18,1418.942,-6180.452,-6975.879,842.9211,-4571.96,0
0.01656968,-8500.999,1439.86,-6239.508,-6965.088,930.5517,-4632.874,0
0.01657105,-8465.285,1526.842,-6326.969,-6933.625,1012.956,-4677.935,0
0.0165743,-8526.865,1542.969,-6323.472,-6980.981,1075.255,-4668.087,0
0.01657022,-8515.571,1562.398,-6340.157,-6972.436,1159.054,-4697.364,0
0.01657237,-8560.105,1633.559,-6310.389,-7006.541,1203.518,-4638.034,0
0.01657283,-8602.76,1679.958,-6308.388,-7043.459,1184.872,-4648.133,0
0.01657183,-8635.208,1661.458,-6287.616,-7054.696,1172.117,-4612.681,0
0.01657183,-8663.43,1601.111,-6201.167,-7075.933,1207.896,-4587.124,0
0.01657094,-8578.478,1623.474,-6200.158,-7024.001,1211.105,-4587.481,0
0.01657158,-8599.599,1665.22,-6164.741,-7031.219,1130.245,-4525.047,0
0.01657158,-8634.931,1625.031,-6174.554,-7062.521,1145.136,-4514.824,0
0.01657115,-8692.994,1591.792,-6084.763,-7102.178,1219.155,-4456.268,0
0.01657115,-8677.495,1620.378,-6086.807,-7098.79,1170.811,-4427.143,0
0.01665322,-8654.606,1620.725,-6085.933,-7076.554,1184.362,-4440.958,0
0.01656997,-8648.447,1583.164,-6075.771,-7071.653,1110.817,-4457.032,0
0.01656832,-8656.718,1566.722,-6102.738,-7073.381,1126.506,-4498.632,0
0.01656832,-8699.97,1582.049,-6131.339,-7106.238,1148.998,-4506.96,0
0.01657151,-8712.618,1601.39,-6117.755,-7111.154,1177.795,-4510.974,0
0.01670758,-8732.67,1562.314,-6087.596,-7130.581,1152.489,-4498.479,0
0.01656927,-8756.021,1540.693,-6088.1,-7148.042,1140.39,-4465.724,0
0.01657166,-8775.602,1533.696,-6055.43,-7162.575,1144.514,-4448.42,0
0.01656952,-8817.28,1550.2,-6057.952,-7193.946,1148.576,-4420.128,0
0.01657093,-8847.362,1552.202,-5957.93,-7211.925,1147.889,-4284.514,0
0.01657093,-8799.566,1548.349,-5931.339,-7183.707,1146.884,-4273.012,0
0.01657312,-8733.258,1535.403,-5926.665,-7137.155,1097.682,-4292.365,0
0.01657102,-8690.879,1513.392,-5947.708,-7095.861,1071.055,-4301.874,0
0.01657102,-8682.639,1495.469,-5914.542,-7085.248,1060.379,-4288.702,0
0.01657165,-8681.305,1488.69,-5932.74,-7084.368,1046.614,-4302.318,0
0.01656203,-8722.862,1480.671,-5912.599,-7120.648,1047.704,-4271.03,0
0.01610175,-8768.309,1490.655,-5873.656,-7146.42,1066.398,-4245.675,0
0.01610175,-8787.826,1451.983,-5853.747,-7174.408,1027.087,-4221.641,0
0.01657055,-8730.3,1452.142,-5908,-7130.211,1021.999,-4253.696,0
0.01657055,-8783.939,1446.354,-5846.517,-7162.26,1030.071,-4196.323,0
0.01656939,-8751.752,1482.727,-5847.512,-7141.906,1078.596,-4208.74,0
0.01656908,-8730.546,1517.721,-5908.494,-7121.208,1085.141,-4277.655,0
0.01656908,-8714.721,1518.255,-5865.042,-7118.013,1040.086,-4204.757,0
0.01657081,-8723.415,1469.421,-5827.362,-7124.709,1077.648,-4208.51,0
0.01657127,-8713.054,1468.35,-5808.523,-7116.82,1083.275,-4184.856,0
0.01657127,-8739.2,1514.813,-5838.541,-7136.836,1076.423,-4250.055,0
0.01657192,-8773.307,1517.286,-5883.143,-7158.39,1008.209,-4212.022,0
0.01657258,-8792.96,1406.466,-5876.362,-7168.795,1013.191,-4264.904,0
0.01657258,-8781.871,1432.785,-5894.751,-7160.12,1029.732,-4269.576,0
0.01721217,-8728.545,1481.112,-5951.5,-7123.701,1034.141,-4295.719,0
0.01657047,-8705.159,1467.942,-5955.815,-7105.915,1036.894,-4295.507,0
0.01656832,-8699.451,1467.92,-5969.874,-7106.135,1036.404,-4299.144,0
0.01671809,-8713.065,1493.102,-5954.731,-7112.239,1071.209,-4284.349,0
0.01657458,-8694.564,1478.693,-5956.586,-7102.633,1063.19,-4296.737,0
0.01657458,-8727.234,1482.512,-5892.825,-7118.845,1078.558,-4214.154,0
0.01657211,-8725.264,1508.626,-5890.742,-7117.356,1089.023,-4246.838,0
0.01657124,-8720.823,1506.536,-5902.598,-7113.988,1104.197,-4229.972,0
0.01657431,-8732.685,1531.299,-5894.24,-7123.079,1132.651,-4226.756,0
0.01657431,-8727.445,1512.949,-5885.268,-7123.498,1104.555,-4257.148,0
0.01656938,-8732.196,1534.519,-5893.1,-7127.123,1136.415,-4230.513,0
0.01657563,-8733.843,1530.988,-5892.754,-7123.929,1132.393,-4226.751,0
0.01657563,-8699.257,1527.719,-5858.961,-7097.515,1087.622,-4222.105,0
0.01657563,-8713.501,1514.432,-5826.783,-7108.508,1071.058,-4197.991,0
0.01657563,-8688.739,1503.984,-5890.588,-7089.66,1070.857,-4231.184,0
0.01657563,-8698.829,1528.244,-5893.885,-7097.502,1081.383,-4229.305,0
0.01657563,-8731.514,1496.38,-5879.184,-7122.539,1065.607,-4224.483,0
0.01657563,-8716.292,1471.078,-5883.318,-7115.303,1066.578,-4229.645,0
0.01657563,-8722.943,1489.665,-5932.733,-7120.386,1061.768,-4260.481,0
0.01657563,-8720.167,1476.087,-5944.013,-7118.247,1030.148,-4268.676,0
0.3333333,-8694.15,1467.558,-5929.064,-7089.518,1044.019,-4269.286,1
0.3333333,-8694.428,1442.868,-5867.37,-7094.274,1079.864,-4244.787,1
0.3333333,-8680.44,1515.83,-5928.459,-7070.393,1072.502,-4295.099,1
0.3333333,-8704.423,1495.73,-5930.246,-7106.588,1013.621,-4271.367,1
0.3333333,-8743.229,1464.069,-5910.858,-7131.792,1021.425,-4260.897,1
0.1324967,-8700.357,1449.165,-5892.844,-7098.939,1072.799,-4291.156,1
0.1324967,-8680.796,1514.043,-5961.376,-7075.197,1036.525,-4330.675,1
0.1324967,-8686.028,1446.383,-5973.612,-7092.625,1017.831,-4294.868,1
0.03320841,-8723.825,1437.801,-5957.065,-7117.12,1028.079,-4314.721,1
0.03323776,-8734.754,1491.234,-5953.239,-7129.826,1051.852,-4314.385,1
0.01658981,-8772.059,1462.881,-5932.876,-7149.327,1028.798,-4302.563,1
0.01657987,-8746.873,1470.802,-5932.613,-7138.742,1058.474,-4269.89,1
0.01657987,-8788.491,1469.147,-5899.854,-7170.388,1044.744,-4286.715,1
0.0165834,-8793.606,1512.948,-5927.183,-7178.456,1106.734,-4275.493,1
0.01657118,-8775.129,1526.963,-5906.41,-7159.653,1131.074,-4267.396,1
0.01657118,-8742.84,1541.994,-5943.485,-7130.417,1117.355,-4307.672,1
0.01657079,-8725.987,1522.374,-5964.238,-7117.547,1096.6,-4302.355,1
0.01657387,-8731.704,1494.163,-5916.826,-7121.97,1077.434,-4255.233,1
0.01656705,-8748.417,1519.36,-5899.673,-7130.326,1062.316,-4261.064,1
0.01656955,-8691.642,1504.431,-5889.847,-7095.824,1072.219,-4251.729,1
0.01656955,-8713.043,1473.225,-5921.614,-7107.903,1055.861,-4253.679,1
0.01656971,-8710.193,1515.077,-5902.11,-7101.379,1079.312,-4245.209,1
0.01656971,-8713.052,1499.734,-5931.184,-7103.655,1068.092,-4264.459,1
0.01676896,-8711.549,1477.852,-5932.617,-7111.443,1054.993,-4253.077,1
0.01656977,-8713.135,1472.336,-5971.549,-7112.704,1023.719,-4286.407,1
0.01657034,-8721.896,1448.551,-5937.092,-7110.568,1048.365,-4304.824,1
0.01657034,-8732.469,1477.53,-5955.52,-7123.091,1081.695,-4342.332,1
0.01656846,-8725.406,1503.029,-5967.398,-7113.237,1119.14,-4288.042,1
0.01656846,-8742.242,1501.625,-5933.485,-7130.528,1063.63,-4276.187,1
0.01656978,-8726.608,1474.619,-5873.466,-7109.666,1002.292,-4226.235,1
0.01657231,-8695.146,1450.004,-5850.996,-7090.102,1078.406,-4247.556,1
0.01657231,-8710.214,1487.284,-5924.058,-7110.594,1082.813,-4297.736,1
0.01656941,-8740.345,1488.393,-5885.972,-7124.769,971.7234,-4239.519,1
0.01656941,-8736.73,1440.106,-5891.408,-7117.516,987.4128,-4210.863,1
0.01657462,-8744.437,1414.717,-5802.09,-7132.229,1036.136,-4207.68,1
0.01657462,-8689.151,1500.944,-5906.389,-7094.381,1015.989,-4249.715,1
0.01607534,-8710.164,1502.147,-5948.556,-7110.553,1043.506,-4266.68,1
0.01656593,-8705.97,1498.787,-5904.922,-7102.958,1074.675,-4243.225,1
0.01657565,-8707.971,1501.487,-5870.387,-7095.682,1060.007,-4224.935,1
0.01657592,-8721.302,1501.258,-5835.492,-7119.217,1065.854,-4203.156,1
0.01657162,-8704.955,1489.036,-5821.303,-7097.854,1074.726,-4162.393,1
0.01657116,-8670.938,1509.057,-5802.647,-7063.087,1079.976,-4160.412,1
0.01657391,-8677.77,1545.087,-5821.447,-7077.37,1096.567,-4207.797,1
0.01657391,-8699.929,1532.087,-5871.205,-7085.558,1130.468,-4210.777,1
0.01657244,-8725.091,1562.225,-5885.715,-7113.683,1144.096,-4218.847,1
0.01657029,-8694.489,1578.983,-5900.743,-7090.259,1151.597,-4226.982,1
0.01657134,-8702.095,1558.902,-5895.829,-7100.554,1137.328,-4195.752,1
0.01657198,-8680.08,1557.719,-5906.285,-7074.9,1118.208,-4228.131,1
0.01657056,-8671.639,1570.619,-5860.102,-7077.435,1102.983,-4202.222,1
0.01657153,-8686.995,1567.692,-5828.175,-7084.84,1133.028,-4156.619,1
0.0165723,-8689.398,1590.516,-5873.286,-7077.867,1139.477,-4194.074,1
0.01657644,-8690.768,1579.716,-5897.581,-7083.402,1104.984,-4187.185,1
0.01657644,-8657.38,1526.619,-5914.466,-7066.815,1050.237,-4233.588,1
0.01657035,-8640.396,1489.294,-5948.746,-7045.13,1046.547,-4264.604,1
0.01656991,-8639.524,1504.43,-5917.932,-7049.105,1087.405,-4228.633,1
0.01657587,-8660.484,1562.382,-5955.656,-7060.854,1109.838,-4281.712,1
0.01657217,-8636.342,1560.614,-5925.104,-7060.24,1070.441,-4224.877,1
0.01656841,-8655.952,1486.134,-5877.095,-7057.617,1091.133,-4230.549,1
0.01656841,-8619.689,1534.22,-5903.636,-7030.02,1109.392,-4240.6,1
0.01657265,-8603.215,1560.339,-5923.471,-7030.951,1074.17,-4284.222,1
0.01657265,-8644.044,1531.137,-5999.887,-7053.476,1016.137,-4290.583,1
0.01657188,-8638.093,1512.369,-6008.833,-7035.701,1066.517,-4314.524,1
0.01657188,-8650.075,1547.711,-5990.212,-7044.954,1124.598,-4324.864,1
0.01568722,-8610.685,1618.634,-6021.06,-7019.368,1084.442,-4320.4,1
0.01657091,-8610.121,1553.358,-5981.835,-7027.985,1099.247,-4263.535,1
0.01657091,-8637.924,1576.826,-5994.697,-7044.922,1109.631,-4279.633,1
0.01657044,-8640.958,1571.357,-5989.146,-7042.841,1105.061,-4303.225,1
0.01657251,-8607.269,1573.308,-5995.954,-7021.584,1128.345,-4278.064,1
0.01656976,-8626.595,1562.194,-5925.614,-7045.344,1147.148,-4223.987,1
0.01657119,-8633.746,1638.484,-5896.578,-7046.406,1153.733,-4242.154,1
0.01657119,-8624.603,1604.439,-5904.027,-7039.44,1176.468,-4238.6,1
0.01657209,-8613.779,1604.971,-5962.392,-7026.794,1208.203,-4294.931,1
0.01657158,-8593.117,1631.179,-6003.184,-7011.115,1208.808,-4279.147,1
0.01657158,-8579.067,1639.063,-5996.473,-7004.984,1205.648,-4281.068,1
0.01656944,-8598.944,1620.826,-5977.867,-7015.913,1202.792,-4284.186,1
0.01657823,-8573.077,1647.214,-5987.92,-6991.837,1157.359,-4291.223,1
0.01656946,-8551.529,1589.009,-6020.887,-6980.02,1114.17,-4289.966,1
0.01666245,-8557.146,1571.545,-6018.642,-6993.419,1120.87,-4315.504,1
0.01657227,-8577.568,1601.156,-5995.887,-7004.756,1134.99,-4277.441,1
0.01657227,-8571.945,1617.504,-5986.635,-7000.557,1155.775,-4289.443,1
0.01657165,-8546.683,1621.144,-6023.47,-6981.377,1158.747,-4330.529,1
0.01656436,-8552.138,1626.649,-6011.5,-6976.867,1149.012,-4273.267,1
0.01656921,-8580.987,1554.869,-5968.724,-6999.056,1141.511,-4316.464,1
0.01664137,-8573.646,1554.778,-5970.742,-7002.353,1098.898,-4293.041,1
0.01657027,-8589.508,1560.017,-6005.996,-7005.64,1056.561,-4326.058,1
0.01657701,-8588.698,1524.546,-6044.427,-7009.45,998.7209,-4322.3,1
0.01656992,-8603.791,1484.039,-6042.451,-7020.96,1052.703,-4357.986,1
0.01657035,-8560.467,1531.282,-6035.17,-6978.961,1083.299,-4333.9,1
0.01657093,-8545.06,1570.37,-6008.812,-6976.189,1047.918,-4289.81,1
0.01657063,-8575.224,1527.901,-6032.677,-7003.797,1084.032,-4305,1
0.01657063,-8575.325,1570.082,-6001.031,-6995.021,1111.641,-4296.562,1
0.01628248,-8571.959,1598.93,-6021.185,-6992.48,1127.246,-4310.585,1
0.01656832,-8547.896,1609.627,-6044.054,-6983.013,1151.616,-4340.453,1
0.01657091,-8548.514,1604.813,-6023.548,-6974.728,1164.083,-4290.851,1
0.01657091,-8506.839,1651.818,-6012.167,-6943.027,1149.087,-4332.58,1
0.01657093,-8529.368,1632.327,-6081.72,-6964.915,1200.991,-4381.457,1
0.01656997,-8520.789,1675.088,-6121.032,-6958.5,1242.482,-4404.507,1
0.01656997,-8527.117,1673.156,-6109.442,-6963.483,1229.212,-4354.26,1
0.01657189,-8515.541,1662.614,-6020.874,-6945.895,1254.593,-4300.271,1
0.0165608,-8486.737,1676.134,-6077.132,-6937.365,1218.584,-4364.643,1
0.01656312,-8517.002,1668.222,-6090.79,-6956.261,1154.951,-4370.466,1
0.01656318,-8533.786,1616.094,-6077.318,-6969.168,1147.488,-4341.156,1
0.01656318,-8510.456,1625.951,-6064.761,-6946.948,1155.625,-4328.445,1
0.01655915,-8529.016,1629.981,-6102.648,-6970.094,1154.56,-4351.534,1
0.01656268,-8530.136,1648.004,-6117.957,-6957.668,1159.461,-4379.413,1
0.01656025,-8486.318,1631.77,-6096.969,-6924.259,1147.025,-4350.982,1
0.01656157,-8466.489,1637.781,-6030.789,-6913.755,1189.579,-4293.726,1
0.01640262,-8495.263,1641.469,-5980.499,-6944.826,1169.32,-4328.363,1
0.01640262,-8481.48,1668.01,-6106.929,-6929.962,1139.965,-4393.215,1
0.0165605,-8503.482,1624.457,-6095.403,-6933.603,1099.769,-4348.451,1
0.01656116,-8493.052,1598.279,-6088.729,-6930.143,1127.581,-4388.411,1
0.01655863,-8499.363,1608.639,-6108.083,-6939.485,1161.934,-4401.091,1
0.01655863,-8458.932,1654.906,-6114.25,-6908.671,1106.709,-4384.543,1
0.01655863,-8474.32,1608.236,-6113.595,-6920.616,1123.474,-4379.45,1
0.06624094,-8492.453,1590.161,-6128.39,-6930.142,1124.733,-4388.121,1
0.03311815,-8483.178,1625.601,-6121.558,-6923.107,1140.001,-4390.77,1
0.01656167,-8497.811,1658.343,-6089.096,-6943.214,1171.644,-4352.833,1
0.01656187,-8474.425,1662.484,-6118.792,-6920.923,1207.901,-4403.501,1
0.01655384,-8467.423,1699.991,-6137.487,-6911.239,1191.175,-4414.575,0
0.01655873,-8451.271,1660.351,-6162.373,-6899.028,1210.259,-4434.756,0
0.01647036,-8453.176,1704.699,-6208.551,-6900.648,1258.901,-4473.607,0
0.01647036,-8455.674,1736.033,-6225.657,-6902.697,1278.313,-4439.706,0
0.01656171,-8461.797,1748.234,-6143.944,-6907.486,1326.254,-4378.096,0
0.01656171,-8446.716,1747.844,-6058.001,-6904.917,1293.32,-4374.813,0
0.01654978,-8423.815,1737.733,-6121.053,-6878.683,1191.058,-4408.178,0
0.01656015,-8402.837,1685.926,-6132.161,-6871.736,1202.106,-4382.833,0
0.01656015,-8419.931,1672.235,-6106.109,-6880.596,1188.062,-4373.75,0
0.0165612,-8411.374,1679.277,-6159.056,-6869.793,1186.579,-4425.874,0
0.01655696,-8394.436,1659.358,-6164.455,-6857.049,1188.87,-4422.079,0
0.01655696,-8388.244,1645.687,-6155.855,-6852.552,1177.96,-4421.462,0
0.01656081,-8419.384,1635.249,-6117.6,-6876.549,1155.992,-4351.161,0
0.01756574,-8410.151,1609.759,-6108.231,-6869.585,1152.226,-4431.389,0
0.0169387,-8416.014,1650.317,-6145.252,-6883.032,1105.863,-4432.749,0
0.01656032,-8393.134,1615.049,-6184.947,-6861.191,1080.823,-4467.366,0
0.03312159,-8408.691,1608.406,-6230.008,-6868.782,1094.356,-4473.528,0
0.01618775,-8412.374,1575.855,-6231.039,-6880.536,1127.112,-4537.947,0
0.03355747,-8405.904,1641.071,-6277.669,-6866.773,1119.25,-4539.577,0
0.01656839,-8425.359,1655.091,-6266.196,-6881.702,1134.753,-4517.296,0
0.01656839,-8453.402,1621.561,-6233.227,-6911.965,1155.152,-4494.246,0
0.01656982,-8450.956,1661.597,-6195.409,-6901.104,1170.799,-4464.056,0
0.03314278,-8432.576,1695.647,-6185.54,-6886.986,1202.8,-4452.879,0
0.0165684,-8397.387,1711.057,-6189.175,-6860.118,1236.502,-4434.059,0
0.01614111,-8426.8,1711.063,-6158.191,-6882.697,1229.004,-4413.495,0
0.03357161,-8416.396,1728.319,-6195.776,-6879.188,1216.997,-4488.03,0
0.01712698,-8411.525,1717.768,-6225.031,-6866.638,1257.453,-4474.242,0
0.01712698,-8399.771,1734.049,-6197.715,-6862.163,1278.188,-4471.26,0
0.01657236,-8418.6,1730.746,-6151.063,-6881.061,1276.722,-4357.217,0
0.01657176,-8410.914,1709.383,-6092.868,-6884.058,1291.429,-4363.784,0
0.01657176,-8383.311,1762.486,-6087.222,-6849.705,1249.192,-4380.35,0
0.01656863,-8357.159,1759.811,-6147.876,-6834.319,1239.718,-4406.469,0
0.01656932,-8363.336,1696.976,-6150.25,-6839.254,1233.671,-4424.438,0
0.01656819,-8344.032,1704.518,-6165.157,-6806.965,1219.197,-4395.975,0
0.01656819,-8331.776,1708.949,-6140.109,-6824.463,1209.567,-4404.34,0
0.01657062,-8355.383,1693.838,-6152.152,-6833.844,1232.114,-4392.578,0
0.01657062,-8399.259,1669.001,-6124.403,-6871.896,1220.628,-4400.561,0
0.01657154,-8367.398,1701.274,-6125.099,-6838.65,1224.29,-4444.689,0
0.01656954,-8323.2,1710.714,-6173.293,-6818.292,1200.744,-4427.751,0
0.01657051,-8367.662,1668.339,-6185.738,-6834.721,1215.78,-4498.119,0
0.01657051,-8394.708,1671.072,-6213.886,-6850.995,1165.6,-4545.676,0
0.01656911,-8386.079,1672.716,-6330.768,-6853.232,1128.811,-4612.636,0
0.03314111,-8386.661,1647.012,-6317.007,-6844.792,1137.953,-4544.897,0
0.03314111,-8397.921,1609.958,-6234.726,-6857.817,1149.517,-4553.9,0
0.04970847,-8390.111,1620.207,-6234.687,-6851.801,1183.367,-4547.23,0
0.04970847,-8335.635,1681.727,-6254.82,-6814.63,1167.879,-4533.57,0
0.04971233,-8333.953,1688.735,-6279.585,-6813.528,1192.093,-4556.138,0
0.04971233,-8385.354,1686.184,-6259.998,-6857.364,1224.724,-4529.262,0
0.04971088,-8408.889,1732.108,-6265.836,-6866.409,1253.306,-4548.792,0
0.04971088,-8387.991,1730.46,-6258.424,-6859.199,1263.703,-4529.364,0
0.01656977,-8387.959,1717.112,-6236.777,-6859.127,1284.286,-4499.153,0
0.01656957,-8392.291,1760.316,-6266.829,-6866.823,1275.207,-4538.163,0
0.01656957,-8434.673,1720.939,-6287.684,-6885.816,1191.138,-4595.482,0
0.01657119,-8435.723,1641.079,-6358.95,-6890.859,1215.223,-4614.684,0
0.01656945,-8401.726,1700.65,-6339.929,-6864.726,1252.243,-4602.196,0
0.01656945,-8375.034,1720.037,-6296.769,-6853.182,1259.472,-4558.383,0
0.01656995,-8412.78,1683.329,-6209.923,-6864.324,1249.316,-4534.625,0
0.01656883,-8393.556,1703.224,-6256.125,-6854.023,1151.76,-4515.743,0
0.01656883,-8405.623,1633.122,-6207.393,-6876.542,1120.563,-4525.412,0
0.0165705,-8448.277,1622.907,-6248.176,-6895.742,1168.513,-4528.709,0
0.01657028,-8426.219,1695.32,-6245.192,-6878.713,1174.723,-4539.2,0
0.01657028,-8464.049,1629.218,-6223.324,-6920.798,1142.863,-4548.273,0
0.01657263,-8484.93,1607.3,-6256.894,-6923.193,1134.412,-4552.329,0
0.01656946,-8472.072,1635.475,-6237.791,-6917.537,1133.217,-4537.697,0
0.01656946,-8467.526,1605.967,-6222.186,-6913.864,1109.23,-4542.432,0
0.01656958,-8446.815,1617.821,-6243.587,-6897.891,1106.662,-4539.982,0
0.01656848,-8448.916,1609.465,-6207.373,-6890.566,1124.067,-4497.941,0
0.01656727,-8458.768,1613.027,-6218.57,-6906.9,1150.521,-4532.418,0
0.01657093,-8466.738,1640.043,-6225.086,-6908.454,1174.296,-4519.998,0
0.01657093,-8489.968,1627.212,-6247.767,-6926.077,1178.057,-4524.356,0
0.01657127,-8478.894,1651.145,-6168.017,-6921.869,1175.005,-4511.391,0
0.01657148,-8492.147,1652.09,-6200.393,-6931.853,1193.412,-4537.685,0
0.01657121,-8465.271,1682.718,-6237.193,-6911.168,1211.45,-4563.053,0
0.01657021,-8479.294,1662.002,-6154.601,-6917.394,1210.694,-4466.681,0
0.01673063,-8518.312,1604.807,-6140.957,-6942.66,1194.344,-4467.376,0
0.0165687,-8530.782,1630.016,-6063.155,-6951.963,1232.755,-4408.013,0
0.01657213,-8526.573,1672.629,-6119.112,-6948.51,1184.048,-4536.595,0
0.01657002,-8535.906,1640.812,-6239.828,-6959.869,1117.606,-4491.748,0
0.01657157,-8546.585,1582.357,-6135.626,-6967.799,1155.405,-4458.393,0
0.01657012,-8525.818,1619.25,-6163.511,-6947.278,1163.812,-4518.133,0
0.01657012,-8487.821,1625.76,-6182.685,-6927.015,1142.539,-4492.628,0
0.01656765,-8538.792,1588.523,-6180.915,-6970.37,1142.182,-4478.846,0
0.01656964,-8546.309,1582.885,-6163.782,-6971.487,1137.212,-4492.696,0
0.01656964,-8534.778,1575.935,-6141.218,-6958.067,1159.772,-4467.225,0
0.01656726,-8554.295,1593.332,-6138.501,-6972.851,1197.261,-4478.052,0
0.01656922,-8542.166,1644.174,-6142.491,-6958.986,1186.201,-4441.617,0
0.01656684,-8540.307,1600.151,-6079.338,-6966.331,1164.961,-4424.06,0
0.01656872,-8573.518,1588.374,-6098.378,-6991.581,1146.885,-4463.856,0
0.01656872,-8603.7,1617.857,-6143.433,-7005.539,1130.452,-4477.646,0
0.01656673,-8596.357,1578.766,-6125.216,-7008.508,1121.182,-4463.214,0
0.01657033,-8612.769,1574.063,-6077.708,-7016.355,1157.367,-4413.75,0
0.01656417,-8577.498,1565.298,-6080.028,-6980.296,1144.663,-4415.263,0
0.01657004,-8606.292,1543.511,-6061.516,-7011.048,1121.505,-4421.882,0
0.01657004,-8542.101,1542.612,-6106.732,-6966.272,1042.369,-4430.615,0
0.01656699,-8558.827,1506.772,-6101.349,-6965.796,1084.057,-4439.632,0
0.01656736,-8609.433,1519.074,-6093.946,-7004.434,1086.551,-4414.129,0
0.01656906,-8612.234,1558.904,-6061.286,-7001.957,1103.069,-4397.383,0
0.01656669,-8613.486,1530.661,-6028.779,-7002.747,1107.637,-4384.444,0
0.01656789,-8617.254,1518.79,-6028.066,-7014.333,1102.308,-4379.506,0
0.01432874,-8638.132,1535.921,-6022.379,-7021.239,1136.311,-4358.009,0
0.01432874,-8645.412,1575.278,-6014.015,-7039.879,1162.501,-4354.715,0
0.01656537,-8650.563,1575.265,-6006.283,-7047.996,1159.603,-4357.433,0
0.01656877,-8623.281,1543.029,-6047.442,-7018.062,1146.528,-4361.998,0
0.01656877,-8627.955,1581.771,-6023.411,-7025.965,1187.187,-4339.105,0
0.01656916,-8629.455,1551.798,-6033.836,-7026.997,1200.701,-4337.891,0
0.01656752,-8609.084,1604.121,-5991.02,-7002.478,1240.525,-4316.208,0
0.01656752,-8604.715,1595.521,-5984.723,-6999.146,1234.766,-4315.041,0
0.0165683,-8602.185,1589.751,-5993.007,-7001.666,1229.016,-4346.035,0
0.01656399,-8620.75,1555.239,-6052.378,-7024.716,1158.449,-4396.241,0
0.01657008,-8639.427,1506.813,-6058.61,-7030.035,1101.885,-4376.547,0
0.01657018,-8615.678,1471.561,-6058.999,-7020.651,1019.873,-4416.962,0
0.01656969,-8602.917,1390.477,-6067.654,-7002.013,972.0647,-4413.472,0
0.01656969,-8629.675,1383.454,-6072.605,-7022.475,987.1052,-4397.464,0
0.01656929,-8599.85,1428.881,-6052.504,-7004.072,1024.081,-4413.885,0
0.01656981,-8641.194,1467.577,-6022.907,-7031.243,1053.732,-4370.452,0
0.01656894,-8650.805,1465.013,-5984.215,-7042.899,1119.274,-4348.771,0
0.01656894,-8627.45,1501.943,-6007.726,-7020.497,1171.318,-4327.33,0
0.01656804,-8660.117,1498.416,-6005.914,-7036.541,1125.536,-4326.14,0
0.01656804,-8630.166,1486.589,-5973.065,-7022.409,1120.073,-4233.945,0
0.01657069,-8643.694,1472.442,-5910.688,-7037.145,1193.475,-4256.281,0
0.0165681,-8648.244,1500.814,-5940.474,-7040.537,1251.006,-4236.283,0
0.0165681,-8637.453,1553.406,-5953.281,-7032.21,1271.183,-4284.957,0
0.01656946,-8647.653,1548.462,-5947.58,-7039.958,1223.5,-4294.12,0
0.01656757,-8639.106,1519.426,-5960.335,-7024.498,1171.992,-4256.133,0
0.01656492,-8653.843,1436.72,-5960.292,-7026.872,1105.202,-4276.543,0
0.01657539,-8675.551,1391.407,-5972.762,-7052.256,1052.055,-4268.217,0
0.01656617,-8639.443,1371.138,-5989.79,-7028.98,1022.086,-4299.902,0
0.01656617,-8648.207,1369.79,-5995.229,-7035.669,1035.977,-4318.466,0
0.01656926,-8623.381,1325.496,-6003.858,-7016.685,971.5822,-4305.898,0
0.01656926,-8632.177,1285.714,-5952.108,-7027.894,944.6113,-4286.861,0
0.01656956,-8593.139,1282.424,-5993.055,-6984.815,958.5887,-4327.937,0
0.01656822,-8598.022,1278.255,-5983.447,-6988.734,918.0663,-4288.964,0
0.01656822,-8595.645,1263.41,-6027.881,-6995.934,869.4297,-4297.173,0
0.01657216,-8578.024,1247.968,-5984.242,-6991.47,928.1423,-4300.905,0
0.01656783,-8581.421,1239.205,-5980.476,-6985.358,896.5068,-4276.451,0
0.01656783,-8600.161,1238.844,-5988.427,-6999.811,878.5165,-4304.205,0
0.01656152,-8609.074,1182.441,-6006.349,-7006.673,835.4536,-4307.909,0
0.01655565,-8601.055,1182.337,-6006.916,-7000.571,826.3826,-4296.382,0
0.01655565,-8617.48,1187.154,-6001.391,-7008.725,841.7834,-4306.545,0
0.01655703,-8597.125,1199.509,-6044.591,-6997.608,864.2086,-4351.677,0
0.01655703,-8601.969,1165.034,-6078.917,-6996.932,837.4596,-4396.492,0
0.01655863,-8572.693,1200.459,-6059.666,-6979.06,856.402,-4374.505,0
0.01655863,-8596.823,1196.466,-6056.979,-6997.62,854.7791,-4363.63,0
0.01655935,-8608.854,1194.428,-6030.734,-7002.404,861.5497,-4350.892,0
0.01655662,-8590.354,1182.154,-6097.335,-6983.844,848.2787,-4393.62,0
0.01655662,-8571.79,1232.111,-6116.433,-6978.611,897.2166,-4429.77,0
0.01655552,-8585.632,1240.816,-6127.077,-6998.157,897.803,-4447.192,0
0.01656101,-8555.212,1250.139,-6086.804,-6961.675,893.2988,-4404.682,0
0.01655916,-8564.021,1217.888,-6066.24,-6968.573,862.5877,-4363.87,0
0.01656019,-8613.742,1176.793,-6125.796,-7015.511,839.1113,-4426.745,0
0.01655971,-8637.389,1185.682,-6075.03,-7029.026,848.9283,-4386.59,0
0.01655971,-8607.675,1195.619,-6107.357,-7006.174,852.2751,-4426.154,0
0.01655985,-8606.753,1206.088,-6059.875,-7005.431,841.0234,-4400.495,0
0.01655675,-8568.485,1157.731,-6086.718,-6971.759,825.0134,-4391.315,0
0.01655967,-8589.367,1171.222,-6047.491,-6978.965,864.0926,-4350.503,0
0.01655907,-8559.493,1174.675,-6040.734,-6965.078,864.3474,-4377.033,0
0.01655911,-8586.677,1187.153,-6025.658,-6999.265,818.2959,-4353.672,0
0.0164924,-8639.434,1163.137,-6025.639,-7030.666,830.8643,-4388.688,0
0.01655827,-8625.612,1166.287,-6044.74,-7019.928,841.4644,-4365.368,0
0.01655827,-8619.485,1162.34,-6088.972,-7010.705,827.7662,-4402.781,0
0.01656002,-8591.303,1175.266,-6070.95,-6993.556,831.6822,-4394.152,0
0.01656027,-8604.798,1167.283,-6107.482,-7008.326,829.0022,-4416.714,0
0.01656027,-8606.107,1188.604,-6086.898,-7000.434,849.2587,-4412.173,0
0.0169223,-8633.287,1152.05,-6043.424,-7025.602,816.0957,-4382.203,0
0.01655701,-8624.732,1141.221,-6039.374,-7014.517,824.0467,-4346.77,0
0.01655968,-8608.419,1188.448,-6024.581,-7001.998,856.3609,-4365.531,0
0.01656725,-8599.944,1193.202,-6059.01,-6991.1,867.9752,-4369.496,0
0.01657041,-8582.785,1199.798,-6049.884,-6986.91,876.2564,-4369.752,0
0.01656936,-8632.842,1191.63,-6046.798,-7016.342,879.3369,-4353.034,0
0.01656936,-8629.798,1219.384,-6066.206,-7018.354,896.5646,-4388.422,0
0.01656911,-8592.477,1221.318,-6001.301,-6989.784,876.5473,-4296.455,0
0.01657635,-8583.967,1139.407,-5991.02,-6978.925,665.467,-4375.868,0
0.0165673,-8565.793,1026.001,-6045.296,-6965.156,696.6016,-4318.537,0
0.01656613,-8562.068,1033.923,-6049.152,-6975.769,710.5092,-4337.655,0
0.01656912,-8574.762,1070.624,-6016.206,-6985.586,747.373,-4319.202,0
0.01656912,-8612.259,1082.574,-6046.553,-7005.413,767.8945,-4334.212,0
0.0165677,-8578.627,1097.407,-6023.747,-6975.244,780.8176,-4344.816,0
0.01657016,-8594.386,1122.951,-6025.282,-6991.785,801.5554,-4349.648,0
0.01657016,-8588.22,1116.692,-6026.809,-6987.08,799.5639,-4349.468,0
0.01656881,-8599.045,1148.436,-5989.04,-6995.367,830.4744,-4327.318,0
0.01656881,-8574.352,1157.589,-6029.853,-6972.068,820.1826,-4352.26,0
0.01657117,-8577.652,1168.444,-6034.548,-6979.106,835.0231,-4343.657,0
0.01656641,-8624.089,1159.72,-6025.754,-7010.176,818.8095,-4333.076,0
0.01583638,-8596.794,1152.772,-6055.371,-6993.653,803.467,-4363.487,0
0.01657581,-8592.993,1123.287,-6033.145,-6981.878,778.1789,-4363.883,0
0.01657581,-8629.423,1114.009,-6042.277,-7018.573,772.3132,-4354.76,0
0.01656789,-8603.092,1109.655,-6046.342,-6998.336,776.5969,-4361.991,0
0.01656455,-8575.388,1114.164,-6035.21,-6977.168,797.0485,-4353.999,0
0.01657097,-8573.673,1143.168,-6053.461,-6980.377,807.3257,-4364.882,0
0.01656669,-8591.718,1132.159,-6103.822,-6989.794,772.847,-4417.661,0
0.03314118,-8618.876,1109.149,-6083.006,-7010.53,778.3328,-4333.913,0
0.03314118,-8612.493,1106.801,-5956.822,-6996.698,779.4022,-4158.919,0
0.0497045,-8569.73,1125.435,-5901.057,-6977.307,713.395,-4261.286,0
0.01657152,-8598.188,1031.884,-5975.496,-6994.694,719.9937,-4242.96,0
0.0165667,-8554.989,1057.246,-5992.793,-6948.412,749.6707,-4337.051,0
0.0165667,-8550.763,1081.278,-6020.542,-6949.8,785.099,-4387.327,0
0.03313654,-8533.172,1120.632,-6116.477,-6945.404,782.2208,-4473.414,0
0.0165599,-8541.094,1123.923,-6113.14,-6942.786,789.1215,-4453.989,0
0.01656702,-8549.234,1161.27,-6102.244,-6958.028,818.1228,-4409.517,0
0.01656702,-8532.204,1173.296,-6081.21,-6949.556,824.8896,-4420.897,0
0.01656854,-8600.089,1181.571,-6118.503,-6983.789,820.7419,-4419.794,0
0.01657044,-8595.183,1159.349,-6097.436,-6988.812,806.901,-4415.634,0
0.01656837,-8626.632,1164.153,-6046.421,-7008.301,828.1909,-4355.185,0
0.01656837,-8585.967,1175.865,-6094.384,-6977.074,849.1689,-4405.169,0
0.01656893,-8624.083,1168.448,-6090.41,-7010.589,849.9493,-4405.318,0
0.01656961,-8618.552,1174.406,-6111.446,-6997.34,854.0521,-4403.255,0
0.01657275,-8622.696,1175.15,-6124.114,-7009.26,843.37,-4423.58,0
0.01656632,-8592.913,1198.958,-6082.964,-6986.396,867.7825,-4372.857,0
0.0165648,-8626.364,1164.241,-6053.011,-7016.359,855.4617,-4331.181,0
0.0165648,-8622.572,1189.047,-5989.159,-7004.463,870.1453,-4287.048,0
0.01656872,-8602.29,1172.413,-6008.955,-6993.324,846.1987,-4308.919,0
0.01656758,-8577.131,1165.087,-6059.208,-6978.538,842.4812,-4348.366,0
0.0165721,-8535.979,1158.882,-6013.01,-6942.771,831.0645,-4303.721,0
0.01657029,-8543.184,1167.875,-6016.733,-6948.505,837.6608,-4328.67,0
0.01657029,-8537.796,1167.359,-6044.847,-6944.574,830.8715,-4349.994,0
0.02686944,-8577.075,1162.154,-6056.762,-6974.739,827.1682,-4359.106,0
0.01656862,-8581.353,1153.793,-6111.343,-6982.446,812.4913,-4415.971,0
0.01656842,-8604.961,1162.562,-6094.777,-6991.589,816.4777,-4391.424,0
0.01656837,-8595.255,1147.919,-6056.99,-6988.526,811.9756,-4350.521,1
0.03313112,-8567.379,1166.698,-6064.483,-6958.337,824.4379,-4341.876,1
0.03313112,-8576.479,1146.321,-6042.394,-6978.661,811.6441,-4351.086,1
0.04943029,-8605.344,1147.671,-6104.898,-7000.704,823.8168,-4402.18,1
0.04943029,-8601.066,1126.001,-6122.767,-6997.337,803.1489,-4418.948,1
0.03342395,-8609.487,1087.035,-6123.157,-6999.26,757.1816,-4428.967,1
0.03313974,-8592.034,1085.379,-6115.06,-6981.417,775.5934,-4405.647,1
0.01657175,-8558.43,1145.13,-6072.674,-6955.765,829.1777,-4375.083,1
0.01656615,-8536.706,1170.597,-6057.053,-6948.172,837.4885,-4345.737,1
0.01656896,-8551.021,1158.003,-6020.31,-6950.413,802.2786,-4331.936,1
0.01656998,-8549.542,1123.29,-6052.069,-6953.837,807.6313,-4394.061,1
0.0165698,-8557.813,1144.071,-6080.792,-6955.824,844.3281,-4396.586,1
0.0165698,-8521.744,1148.831,-6139.14,-6928.362,819.6415,-4437.446,1
0.01656959,-8518.655,1166.467,-6101.441,-6921.774,823.9465,-4403.954,1
0.01656834,-8529.332,1142.002,-6125.543,-6930.126,804.1009,-4427.514,1
0.01657033,-8515.933,1116.879,-6093.528,-6928.897,784.6871,-4413.131,1
0.01656719,-8528.448,1112.124,-6106.812,-6929.743,772.0513,-4424.584,1
0.01656719,-8514.81,1103.723,-6102.163,-6923.872,772.9957,-4404.856,1
0.01657069,-8501.599,1115.689,-6099.189,-6918.358,781.4541,-4381.764,1
0.01656622,-8571.774,1091.247,-6122.51,-6976.52,772.0305,-4440.29,1
0.01656994,-8588.474,1108.569,-6131.694,-6989.134,805.3505,-4435.223,1
0.01656994,-8605.693,1134.112,-6170.851,-6997.666,818.7838,-4467.722,1
0.01656283,-8588.732,1141.012,-6082.424,-6988.932,812.637,-4395.218,1
0.01657022,-8548.664,1129.603,-6049.154,-6953.777,799.9971,-4396.495,1
0.01657022,-8542.837,1122.145,-6152.201,-6949.37,766.8916,-4504.929,1
0.01657012,-8597.129,1129.023,-6248.169,-6995.301,740.9406,-4598.621,1
0.01657063,-8593.349,1114.827,-6209.482,-6983.387,712.7844,-4580.566,1
0.01657063,-8566.382,1081.302,-6238.32,-6967.12,724.5127,-4668.812,1
0.01656732,-8581.612,1083.878,-6329.504,-6978.739,695.9673,-4762.07,1
0.01656812,-8646.938,1060.084,-6345.528,-7032.969,656.743,-4734.211,1
0.01656812,-8661.538,1022.691,-6309.95,-7030.501,613.0638,-4685.938,1
0.01657007,-8628.303,1026.344,-6220.267,-7009.254,619.9622,-4624.617,1
0.01656723,-8615.19,1040.945,-6171.969,-6999.088,663.3887,-4603.867,1
0.01656806,-8659.378,1088.869,-6149.38,-7019.434,711.3049,-4530.63,1
0.01656806,-8637.059,1153.275,-6062.461,-7019.902,797.5978,-4494.638,1
0.01657235,-8671.602,1185.784,-6110.671,-7037.258,791.6356,-4525.759,1
0.01657235,-8731.158,1184.188,-6098.151,-7082.474,703.3978,-4434.421,1
0.01656736,-8685.545,1148.649,-6028.646,-7056.072,722.1473,-4341.338,1
0.01656477,-8710.493,1165.165,-5886.127,-7074.874,818.6176,-4292.261,1
0.01656477,-8669.17,1249.794,-5908.377,-7047.451,854.6689,-4282.88,1
0.01657176,-8723.367,1261.331,-5932.072,-7084.261,764.3547,-4297.725,1
0.01657176,-8705.803,1197.409,-5913.194,-7057.249,764.2906,-4283.215,1
0.0165684,-8714.839,1193.905,-5885.125,-7068.397,835.9917,-4259.744,1
0.0165684,-8726.482,1255.173,-5886.789,-7085.942,827.1047,-4275.066,1
0.01657075,-8781.752,1266.835,-5870.393,-7123.453,822.3678,-4249.895,1
0.01656931,-8790.087,1252.897,-5882.837,-7133.825,833.8395,-4261.992,1
0.01657169,-8768.785,1291.292,-5881.588,-7112.718,861.2017,-4255.204,1
0.01656827,-8767.837,1294.099,-5833.71,-7120.578,878.7357,-4232.723,1
0.0165748,-8776.899,1319.289,-5816.017,-7122.799,911.6906,-4182.699,1
0.0165748,-8777.217,1324.072,-5789.511,-7113.919,910.1509,-4142.927,1
0.01656942,-8762.438,1353.449,-5772.039,-7106.857,963.1574,-4195.701,1
0.0165668,-8757.988,1391.217,-5803.1,-7116.612,1003.601,-4208.089,1
0.01656937,-8736.506,1429.22,-5890.587,-7095.644,1056.302,-4276.963,1
0.01656934,-8702.692,1438.81,-5904.598,-7056.507,1039,-4252.806,1
0.01656934,-8667.326,1439.223,-5842.963,-7034.074,1029.201,-4193.36,1
0.01657127,-8695.825,1441.053,-5794.462,-7051.639,1019.471,-4162.475,1
0.01657127,-8679.487,1468.503,-5781.27,-7034.852,1000.301,-4149.54,1
0.01656962,-8718.887,1423.408,-5831.679,-7073.965,1001.959,-4181.837,1
0.01656722,-8715.586,1398.844,-5812.346,-7071.431,984.2594,-4154.576,1
0.01656722,-8681.519,1428.277,-5781.833,-7049.858,967.7468,-4118.857,1
0.01656885,-8660.697,1398.794,-5756.04,-7020.791,958.6035,-4124.241,1
0.01657034,-8715.108,1363.989,-5760.607,-7062.542,956.8574,-4128.701,1
0.01656769,-8755.922,1391.439,-5773.26,-7093.68,994.136,-4145.361,1
0.01656769,-8685.421,1437.544,-5774.098,-7044.125,1013.111,-4136.005,1
0.01656791,-8654.239,1466.179,-5743.929,-7029.295,1029.982,-4081.926,1
0.01656791,-8679.648,1431.094,-5716.241,-7048.887,1040.52,-4141.232,1
0.01656943,-8665.929,1497.603,-5784.11,-7029.629,1055.025,-4159.812,1
0.01656851,-8670.166,1496.096,-5815.025,-7033.004,998.9115,-4193.449,1
0.01656851,-8638.523,1448.454,-5814.11,-7013.391,990.8402,-4158.329,1
0.01656759,-8710.136,1420.026,-5804.954,-7068.263,1046.046,-4198.431,1
0.01656947,-8706.637,1502.028,-5893.2,-7056.64,1024.859,-4252.435,1
0.01657379,-8701.012,1461.166,-5913.118,-7061.164,1004.771,-4227.671,1
0.01656825,-8692.248,1446.794,-5848.407,-7050.004,1032.481,-4207.6,1
0.01656895,-8741.318,1497.801,-5870.604,-7083.038,1046.651,-4209.216,1
0.01656541,-8661.19,1520.58,-5832.924,-7026.136,1069.613,-4175.334,1
0.01656541,-8637.716,1517.887,-5866.839,-7008.362,1092.168,-4212.89,1
0.01656543,-8635.417,1525.949,-5871.092,-7006.827,1095.779,-4181.946,1
0.01657068,-8643.319,1538.349,-5796.386,-7013.063,1088.034,-4186.907,1
0.01656872,-8624.991,1549.836,-5840.173,-6994.792,1157.718,-4188.307,1
0.01656872,-8657.756,1572.816,-5876.689,-7024.448,1188.666,-4239.439,1
0.01656921,-8656.15,1582.678,-5877.968,-7018.847,1179.344,-4211.415,1
0.01656952,-8684.058,1581.705,-5866.358,-7049.077,1178.977,-4201.607,1
0.01656952,-8712.67,1573.243,-5858.789,-7066.418,1138.88,-4214.606,1
0.0165727,-8660.418,1569.97,-5891.939,-7026.372,1093.479,-4241.509,1
0.0165492,-8691.853,1560.564,-5872.46,-7045.992,1108.063,-4195.435,1
0.01656482,-8709.028,1529.512,-5868.176,-7054.612,1096.431,-4202.113,1
0.01656482,-8688.926,1546.072,-5856.646,-7048.021,1078.873,-4197.164,1
0.01655709,-8713.748,1516.004,-5812.988,-7058.066,1099.12,-4164.682,1
0.01656058,-8692.52,1530.414,-5849.234,-7046.183,1115.117,-4206.374,1
0.01656058,-8664.559,1503.832,-5843.478,-7033.676,1078.432,-4171.503,1
0.01656054,-8687.176,1453.681,-5831.263,-7042.14,1081.229,-4230.665,1
0.01655904,-8650.441,1520.266,-5877.632,-7018.521,1089.307,-4229.465,1
0.03312026,-8646.887,1546.393,-5930.861,-7015.929,1069.371,-4281.046,1
0.01655864,-8632.845,1546.628,-5937.867,-6996.47,1043.784,-4280.235,1
0.0165596,-8646.94,1478.344,-5889.273,-7011.842,1069.256,-4241.163,1
0.01655949,-8584.592,1514.603,-5880.305,-6968.779,1077.124,-4254.165,1
0.01655949,-8574.109,1560.532,-5908.994,-6952.231,1081.187,-4223.626,1
0.01655523,-8600.573,1499.298,-5884.423,-6977.204,1063.992,-4235.259,1
0.01656238,-8670.856,1507.277,-5904.365,-7031.045,989.858,-4277.581,1
0.01655821,-8684.283,1501.716,-5942.125,-7045.626,977.8121,-4266.349,1
0.01656573,-8695.29,1461.733,-5966.537,-7053.879,1057.486,-4261.509,1
0.01656147,-8678.161,1494.067,-5883.935,-7040.629,1091.154,-4192.69,1
0.01656147,-8641.333,1559.692,-5839.128,-6999.135,1070.313,-4220.375,1
0.01655766,-8610.765,1534.742,-5864.911,-6993.618,1104.045,-4221.921,1
0.01655766,-8617.786,1559.323,-5924.884,-6985.842,1154.248,-4302.944,1
0.01656031,-8626.386,1598.573,-5981.125,-7001.412,1199.158,-4312.948,1
0.01656155,-8635.064,1616.99,-5971.786,-7003.681,1218.32,-4270.287,1
0.01655914,-8589.212,1652.212,-5897.914,-6973.155,1229.227,-4260.22,1
0.01656181,-8583.779,1651.152,-5906.818,-6964.782,1132.35,-4269.229,1
0.01655765,-8588.671,1547.914,-5905.916,-6977.59,1065.49,-4228.062,1
0.01655765,-8556.542,1535.654,-5871.13,-6939.922,1088.133,-4219.29,1
0.01662931,-8595.579,1540.923,-5894.476,-6983.3,1057.924,-4241.408,1
0.01657267,-8586.776,1533.466,-5940.245,-6967.794,1062.358,-4297.976,1
0.01657622,-8602.728,1505.995,-5968.947,-6984.522,1064.52,-4296.976,1
0.01657622,-8591.202,1532.215,-5952.423,-6971.33,1107.15,-4251.17,1
0.01632144,-8575.654,1536.066,-5886.254,-6946.254,1095.699,-4297.8,1
0.01657523,-8553.307,1579.394,-5991.721,-6938.225,1076.733,-4337.01,1
0.01657358,-8541.846,1582.571,-5977.074,-6934.122,1068.886,-4318.569,1
0.01657451,-8568.852,1552.179,-6007.025,-6959.391,1082.787,-4319.047,1
0.01657172,-8568.351,1553.985,-5946.178,-6950.232,1137.918,-4312.491,1
0.01657172,-8566.98,1607.164,-5951.027,-6953.715,1100.303,-4291.726,1
0.01657086,-8574.167,1593.741,-5927.321,-6968.146,1127.323,-4233.978,1
0.01657086,-8579.704,1572.182,-5914.267,-6967.968,1111.001,-4252.398,1
0.01657283,-8595.09,1567.392,-5962.827,-6970.862,1094.284,-4291.235,1
0.01657182,-8624.971,1569.002,-5957.016,-6998.073,1118.23,-4264.272,1
0.01657182,-8548.161,1619.411,-6015.013,-6943.724,1154.996,-4314.625,1
0.01632448,-8549.911,1611.865,-5941.419,-6945.211,1149.003,-4228.847,1
0.01657685,-8543.43,1644.752,-5910.219,-6931.529,1142.354,-4274.676,1
0.0165736,-8571.895,1625.032,-5957.579,-6957.846,1199.649,-4276.009,1
0.01657381,-8613.117,1626.511,-6001.769,-6980.472,1209.085,-4325.216,1
0.01657534,-8643.609,1668.898,-5983.809,-7008.06,1261.939,-4242.313,1
0.0165714,-8581.401,1681.196,-5923.67,-6964.774,1282.784,-4234.643,1
0.01657631,-8601.456,1688.899,-5922.397,-6980.104,1195.133,-4251.278,1
0.01657238,-8545.558,1651.438,-5898.689,-6941.809,1128.63,-4202.27,1
0.01657921,-8585.081,1580.589,-5944.52,-6963.269,1132.721,-4225.876,1
0.01657638,-8562.744,1632.624,-5907.288,-6950.655,1169.545,-4217.198,1
0.01657128,-8522.151,1646.358,-5979.474,-6919.75,1152.552,-4263.881,1
0.01657537,-8517.56,1594.528,-5954.176,-6916.471,1146.735,-4264.68,1
0.01657123,-8537.438,1583.517,-5914.859,-6940.726,1117.366,-4209.144,1
0.01657123,-8480.783,1551.233,-5871.406,-6884.285,1128.615,-4237.073,1
0.0165728,-8481.126,1567.803,-5857.531,-6889.312,1127.328,-4300.053,1
0.01657961,-8453.152,1620.138,-5976.705,-6863.814,1074.358,-4323.493,1
0.01657302,-8520.431,1576.393,-6008.776,-6915.542,1088.18,-4336.08,1
0.01657271,-8568.979,1546.176,-6005.878,-6952.672,1121.513,-4313.874,1
0.01657255,-8587.311,1591.796,-5973.114,-6966.544,1150.668,-4310.505,1
0.01657462,-8593.313,1634.028,-5947.127,-6975.379,1124.438,-4263.392,1
0.01657462,-8592.121,1588.404,-5962.054,-6965.416,1121.403,-4267.902,1
0.01658141,-8563.289,1610.507,-5942.237,-6956.557,1145.528,-4265.786,1
0.01657417,-8563.101,1631.138,-5980.542,-6951.933,1163.16,-4296.727,1
0.01657417,-8535.154,1658.9,-5949.83,-6930.567,1184.22,-4268.462,1
0.01657975,-8545.465,1681.436,-5947.049,-6942.947,1226.678,-4266.921,1
0.0165754,-8529.484,1691.427,-5958.09,-6917.476,1201.559,-4280.921,1
0.01657524,-8543.331,1681.878,-5961.028,-6928.153,1209.786,-4303.633,1
0.01657524,-8551.553,1661.337,-5966.149,-6943.335,1220.455,-4311.617,1
0.01657511,-8559.841,1661.546,-6060.781,-6940.787,1195.773,-4414.494,1
0.0165727,-8550.11,1644.738,-6093.583,-6942.199,1183.102,-4347.34,1
0.01657565,-8589.962,1639.424,-5974.183,-6972.615,1257.382,-4225.353,1
0.01657417,-8565.451,1666.186,-5917.531,-6940.456,1156.036,-4208.882,1
0.01657675,-8526.41,1651.731,-5899.722,-6919.503,1112.322,-4186.471,1
0.01657675,-8486.119,1580.729,-5926.164,-6888.865,1088.718,-4214.507,1
0.01657509,-8512.783,1606.196,-5963.369,-6909.477,1109.029,-4248.108,1
0.01657318,-8447.831,1610.865,-5925.992,-6846.731,1165.674,-4214.354,1
0.01657318,-8397.987,1619.925,-5964.6,-6822.37,1155.723,-4257.583,1
0.01671557,-8410.892,1633.382,-5938.976,-6841.592,1183.193,-4219.458,1
0.01671557,-8393.891,1621.112,-5906.599,-6824.568,1204.226,-4237.802,1
0.01657459,-8446.657,1627.162,-5942.953,-6856.4,1128.171,-4272.343,1
0.01657081,-8442.428,1624.409,-6024.763,-6866.654,1110.37,-4366.337,1
0.01657541,-8464.843,1617.556,-6026.511,-6879.487,1118.278,-4314.919,1
0.01657385,-8469.195,1592.705,-5990.198,-6878.438,1157.852,-4323.23,1
0.01657325,-8432.993,1645.225,-6070.608,-6841.989,1162.828,-4405.214,1
0.01657559,-8410.836,1626.805,-6102.94,-6829.708,1135.68,-4373.725,1
0.01657559,-8429.396,1587.225,-6089.435,-6839.699,1135.693,-4389.28,1
0.01634383,-8460.483,1619.485,-6107.565,-6872.455,1111.138,-4431.518,1
0.01666649,-8498.866,1610.75,-6122.767,-6892.898,1112.594,-4415.211,1
0.01657548,-8435.737,1628.584,-6109.819,-6853.453,1146.798,-4374.151,1
0.01657548,-8430.027,1609.324,-6072.556,-6853.64,1137.883,-4326.329,1
0.01657069,-8423.644,1636.878,-6034.774,-6844.45,1135.688,-4340.64,1
0.01657717,-8382.409,1642.928,-6037.979,-6817.541,1195.951,-4320.653,1
0.01657731,-8424.127,1692.218,-6022.715,-6845.223,1268.581,-4327.873,1
0.01657731,-8415.507,1717.478,-6080.363,-6843.163,1275.814,-4374.42,1
0.01657459,-8412.93,1715.902,-6070.392,-6836.867,1329.283,-4299.881,1
0.01657343,-8419.305,1767.381,-5987.866,-6846.275,1324.033,-4304.767,1
0.01657531,-8428.792,1787.149,-6036.118,-6853.581,1240.806,-4321.292,1
0.01657271,-8452.133,1713.084,-6057.663,-6862.556,1218.265,-4347.735,1
0.01657445,-8434.579,1689.069,-6044.591,-6849.106,1228.634,-4330.2,1
0.01657652,-8448.676,1682.54,-6045.561,-6864.319,1175.121,-4332.874,1
0.01657652,-8470.247,1637.215,-6059.782,-6876.31,1159.156,-4343.994,1
0.01657548,-8511.436,1626.311,-6043.854,-6903.206,1197.284,-4304.906,1
0.01657541,-8533.983,1647.875,-6041.687,-6924.601,1175.918,-4340.149,1
0.01657541,-8511.257,1628.303,-6114.073,-6902.505,1176.871,-4365.196,1
0.01657407,-8473.095,1670.164,-6065.436,-6882.053,1225.298,-4270.516,1
0.01657396,-8456.287,1707.161,-5976.442,-6860.323,1226.32,-4282.461,1
0.01657322,-8382.096,1738.804,-6058.983,-6803.742,1218.75,-4354.315,1
0.01657523,-8391.187,1698.471,-6098.385,-6819.873,1186.949,-4368.503,1
0.01607756,-8420.408,1651.957,-6104.6,-6842.416,1188.271,-4394.921,1
0.01607756,-8360.228,1635.339,-6135.635,-6792.148,1201.709,-4439.126,1
0.01657275,-8326.518,1655.688,-6093.736,-6771.177,1163.874,-4397.334,1
0.0165547,-8340.808,1653.429,-6099.224,-6773.634,1178.885,-4379.199,1
0.01657094,-8378.49,1649.493,-6111.797,-6807.161,1182.326,-4431.604,1
0.01657094,-8368.86,1643.338,-6195.969,-6804.382,1179.08,-4475.384,1
0.01657098,-8413.422,1597.734,-6203.481,-6838.548,1148.227,-4470.371,1
0.01657441,-8426.251,1629.752,-6182.547,-6843.875,1188.969,-4444.8,1
0.01657441,-8429.147,1651.034,-6169.296,-6841.584,1175.356,-4427.461,1
0.01657065,-8440.619,1641.753,-6154.699,-6850.276,1175.228,-4478.985,1
0.01657065,-8389.562,1620.659,-6180.577,-6824.496,1187.148,-4456.932,1
0.01656927,-8388.735,1681.918,-6184.484,-6819.51,1232.862,-4486.261,1
0.01657297,-8413.806,1665.774,-6185.587,-6838.728,1242.241,-4439.732,1
0.01656993,-8386.398,1700.498,-6092.189,-6822.214,1297.127,-4371.331,1
0.01656881,-8422.575,1731.101,-6117.586,-6849.902,1241.23,-4408.654,1
0.01656985,-8420.434,1710.213,-6144.004,-6834.901,1191.545,-4421.947,1
0.01656879,-8401.164,1667.686,-6134.201,-6824.596,1223.84,-4420.794,1
0.01657475,-8384.454,1675.769,-6138.844,-6807.449,1209.213,-4417.958,1
0.01656763,-8330.451,1641.297,-6138.873,-6770.768,1180.122,-4421.289,1
0.01657603,-8411.241,1632.454,-6152.481,-6837.162,1165.749,-4431.933,1
0.01657063,-8378.933,1638.244,-6143.939,-6808.011,1186.4,-4408.171,1
0.01657258,-8386.609,1636.428,-6090.304,-6809.522,1158.24,-4402.135,1
0.01657315,-8397.794,1631.641,-6134.568,-6822.544,1186.584,-4420.826,1
0.01657315,-8390.035,1621.3,-6148.863,-6816.617,1176.277,-4425.352,1
0.01656949,-8416.541,1668.921,-6143.408,-6841.307,1193.91,-4439.412,1
0.01656552,-8368.884,1676.843,-6128.623,-6800.408,1196.042,-4372.667,1
0.01657115,-8421.881,1615.273,-6099.8,-6845.407,1188.316,-4427.502,1
0.01656836,-8418.552,1618.324,-6150.697,-6838.322,1143.939,-4462.52,1
0.01657296,-8360.979,1626.633,-6149.66,-6789.868,1115.566,-4471.83,1
0.01657296,-8394.948,1551.953,-6179.895,-6824.821,1085.634,-4442.139,1
0.01656976,-8385.148,1559.379,-6171.424,-6812.904,1136.301,-4502.288,1
0.01656976,-8351.696,1600.641,-6216.125,-6782.98,1127.876,-4510.974,1
0.01657526,-8381.037,1575.508,-6219.111,-6809.983,1104.403,-4475.265,1
0.01656994,-8374.054,1571.075,-6167.171,-6804.686,1127.285,-4462.547,1
0.01656936,-8427.664,1583.232,-6209.445,-6854.527,1132.854,-4493.378,1
0.01657261,-8478.937,1619.738,-6189.631,-6889.059,1163.322,-4467.802,1
0.01657199,-8447.408,1630.831,-6138.941,-6855.789,1173.956,-4422.656,1
0.01657199,-8420.653,1626.692,-6091.221,-6830.771,1179.293,-4366.701,1
0.01656899,-8399.247,1604.103,-6126.29,-6818.83,1134.824,-4452.807,1
0.01656899,-8362.453,1597.826,-6215.528,-6799.65,1152.54,-4489.947,0
0.01676436,-8406.649,1607,-6178.357,-6824.683,1201.955,-4469.924,0
0.01657006,-8373.742,1658.029,-6154.071,-6808.418,1231.117,-4447.699,0
0.01657092,-8343.668,1653.498,-6148.158,-6776.699,1255.925,-4398.621,0
0.01652485,-8370.576,1653.367,-6122.917,-6806.324,1213.452,-4431.565,0
0.01656836,-8397.771,1649.488,-6099.514,-6818.296,1116.73,-4388.884,0
0.01656708,-8420.215,1569.985,-6128.019,-6835.41,1117.063,-4394.821,0
0.01656708,-8440.966,1601.521,-6136.038,-6851.149,1159.386,-4409.669,0
0.0165677,-8396.34,1621.805,-6177.399,-6825.778,1140.032,-4452.119,0
0.01656174,-8350.326,1597.072,-6180.979,-6790.655,1156.656,-4443.658,0
0.01662742,-8335.806,1615.406,-6162.217,-6770.886,1164.067,-4428.416,0
0.01662742,-8377.413,1627.728,-6154.97,-6798.446,1165.996,-4437.278,0
0.03313048,-8348.726,1624.742,-6180.577,-6781.038,1159.255,-4451.551,0
0.03313048,-8330.017,1627.33,-6157.063,-6766.908,1154.301,-4437.937,0
0.03313639,-8385.884,1611.352,-6148.849,-6809.758,1174.232,-4424.461,0
0.01656724,-8344.438,1633.249,-6123.066,-6786.954,1216.417,-4430.581,0
0.01656724,-8319.341,1645.45,-6161.07,-6767.908,1169.082,-4419.511,0
0.01656697,-8317.15,1655.678,-6108.297,-6762,1161.88,-4408.323,0
0.01656697,-8308.398,1640.136,-6139.771,-6755.511,1195.384,-4426.958,0
0.01656804,-8347.959,1647.971,-6148.528,-6785.913,1188.534,-4445.024,0
0.01656731,-8340.251,1626.023,-6140.166,-6780.06,1160.068,-4425.864,0
0.01656731,-8377.926,1581.003,-6136.604,-6804.442,1124.634,-4388.001,0
0.01656569,-8393.183,1575.141,-6074.502,-6811.573,1133.384,-4394.167,0
0.0165695,-8389.649,1615.264,-6108.262,-6808.753,1112.124,-4424.313,0
0.01656745,-8399.574,1568.096,-6146.917,-6825.095,1118.061,-4401.258,0
0.01656745,-8437.414,1551.801,-6117.102,-6858.267,1134.621,-4382.677,0
0.01658188,-8362.813,1580.172,-6096.36,-6792.177,1211.286,-4406.02,0
0.01657971,-8313.373,1653.192,-6123.206,-6754.493,1229.833,-4424.676,0
0.01657562,-8308.034,1682.62,-6171.825,-6750.655,1262.831,-4399.19,0
0.01657562,-8370.702,1656.531,-6072.494,-6798.723,1252.236,-4367.906,0
0.01657997,-8319.955,1691.354,-6094.208,-6755.521,1210.432,-4439.829,0
0.01657997,-8359.067,1612.598,-6167.006,-6789.982,1179.465,-4441.67,0
0.01658306,-8356.646,1611.098,-6157.171,-6783.698,1173.664,-4430.406,0
0.01657067,-8381.761,1583.458,-6172.819,-6811.747,1154.567,-4433.117,0
0.01657721,-8382.08,1541.306,-6163.687,-6816.319,1135.565,-4408.575,0
0.01658023,-8348.915,1568.033,-6077.282,-6777.606,1147.653,-4386.344,0
0.01658042,-8352.577,1601.829,-6124.726,-6793.761,1150.068,-4418.329,0
0.01658129,-8382.688,1557.218,-6223.448,-6807.897,1134.359,-4540.221,0
0.0165828,-8401.178,1544.28,-6255.347,-6821.929,1198.339,-4494.579,0
0.01657725,-8427.278,1576.707,-6198.938,-6846.139,1198.216,-4471.072,0
0.01657725,-8346.969,1613.146,-6179.646,-6780.168,1124.367,-4472.511,0
0.01657483,-8369.683,1530.084,-6204.994,-6788.749,1049.677,-4469.862,0
0.01657483,-8315.352,1509.88,-6199.479,-6756.166,1076.755,-4472.978,0
0.01657946,-8337.156,1529.868,-6180.677,-6773.022,1099.279,-4454.062,0
0.01658072,-8314.725,1556.202,-6175.018,-6751.573,1155.319,-4446.66,0
0.01658072,-8274.13,1549.269,-6195.934,-6734.07,1142.28,-4473.147,0
0.01658044,-8357.418,1509.428,-6230.504,-6780.214,1026.342,-4503.028,0
0.01657986,-8394.948,1437.685,-6222.117,-6822.138,1005.757,-4467.865,0
0.01658169,-8385.859,1451.304,-6193.964,-6810.58,993.7111,-4480.051,0
0.01656639,-8366.908,1465.858,-6197.684,-6795.991,1009.737,-4473.682,0
0.01657869,-8357.913,1485.163,-6207.15,-6793.519,1027.885,-4476.422,0
0.01658041,-8336.07,1490.455,-6209.169,-6781.268,1027.46,-4473.18,0
0.01657894,-8412.062,1467.086,-6203.295,-6839.339,989.8895,-4500.482,0
0.01657912,-8393.136,1453.057,-6195.286,-6815.798,1009.688,-4485.123,0
0.01657912,-8428.163,1457.424,-6236.654,-6837.99,1003.321,-4577.31,0
0.01657827,-8446.024,1471.642,-6321.291,-6855.829,1031.313,-4610.84,0
0.01657559,-8381.842,1506.503,-6278.805,-6802.126,1085.467,-4547.118,0
0.01680395,-8361.777,1539.018,-6234.17,-6782.387,1104.388,-4532.175,0
0.0165792,-8319.067,1584.328,-6215.974,-6758.742,1126.88,-4587.974,0
0.0165792,-8357.7,1577.956,-6265.157,-6792.889,1170.171,-4645.833,0
0.0165817,-8387.216,1576.379,-6317.907,-6802.169,1163.897,-4558.862,0
0.0165817,-8460.743,1544.665,-6229.982,-6862.681,1150.74,-4520.837,0
0.01658281,-8398.161,1554.345,-6211.98,-6819.011,1148.537,-4547.288,0
0.01658281,-8432.231,1569.094,-6213.41,-6844.953,1167.655,-4485.243,0
0.01658106,-8438.603,1536.964,-6181.564,-6849.627,1175.029,-4447.508,0
0.01657878,-8485.183,1549.097,-6183.986,-6884.992,1182.754,-4522.475,0
0.01657878,-8504.138,1526.021,-6218.206,-6899.111,1104.586,-4525.962,0
0.01657889,-8468.016,1503.903,-6209.786,-6875.587,1022.685,-4453.609,0
0.01658119,-8469.719,1421.557,-6163.427,-6867.813,952.0866,-4421.438,0
0.01658119,-8469.119,1355.94,-6132.488,-6871.611,950.5026,-4489.538,0
0.01657874,-8466.315,1418.58,-6183.734,-6864.876,1024.189,-4571.782,0
0.01657874,-8426.685,1471.995,-6235.509,-6830.068,1060.552,-4544.442,0
0.01658138,-8459.907,1445.631,-6215.522,-6855.479,1036.622,-4519.619,0
0.01658138,-8500.326,1419.737,-6165.458,-6890.68,1057.189,-4512.386,0
0.01605684,-8451.696,1441.197,-6124.565,-6857.754,1095.057,-4466.86,0
0.01657951,-8470.76,1479.071,-6105.5,-6867.839,1017.357,-4466.423,0
0.0165795,-8490.567,1441.847,-6167.5,-6887.295,997.082,-4466.671,0
0.0165728,-8506.394,1389.998,-6156.737,-6903.637,1007.853,-4423.401,0
0.0165728,-8499.839,1443.964,-6102.796,-6889.55,994.2156,-4399.624,0
0.01657574,-8525.449,1403.789,-6114.892,-6908.946,963.7169,-4393.993,0
0.01657574,-8514.574,1396.266,-6115.346,-6900.412,975.1722,-4413.765,0
0.01657522,-8549.96,1367.648,-6069.806,-6931.688,944.4485,-4386.441,0
0.01657554,-8493.836,1357.8,-6071.43,-6884.124,961.665,-4432.915,0
0.01657554,-8468.456,1400.109,-6113.896,-6869.146,983.1868,-4427.886,0
0.01657394,-8496.927,1387.927,-6060.319,-6882.071,988.9775,-4403.448,0
0.01657394,-8461.362,1417.98,-6058.515,-6859.315,1001.803,-4388.773,0
0.01657411,-8514.934,1403.456,-6120.691,-6900.298,994.8966,-4451.747,0
0.01666202,-8541.751,1415.966,-6086.908,-6920.645,1010.331,-4417.629,0
0.01666202,-8584.8,1415.599,-6067.566,-6948.859,1005.342,-4415.456,0
0.01657866,-8609.362,1412.9,-6060.533,-6962.833,1021.85,-4396.954,0
0.01657394,-8550.963,1465.4,-6062.086,-6922.296,1055.534,-4400.277,0
0.016568,-8494.304,1494.298,-6176.695,-6883.344,1076.557,-4541.379,0
0.016568,-8552.088,1474.637,-6183.492,-6923.108,1067.075,-4525.385,0
0.01658249,-8572.425,1461.629,-6124.352,-6942.93,1099.877,-4455.803,0
0.01658249,-8517.592,1487.619,-6140.838,-6905.3,1109.246,-4482.208,0
0.01657762,-8587.391,1487.857,-6113.297,-6945.302,1103.062,-4518.952,0
0.01657586,-8605.599,1482.877,-6155.696,-6967.84,1053.333,-4484.719,0
0.01657705,-8611.474,1462.437,-6110.516,-6967.606,1068.943,-4486.108,0
0.0165356,-8552.296,1462.133,-6145.899,-6922.166,1051.474,-4537.467,0
0.01657679,-8598.359,1452.061,-6115.211,-6957.315,1055.398,-4480.875,0
0.01657679,-8622.859,1425.15,-6078.532,-6980.26,1031.252,-4432.112,0
0.01657726,-8646.789,1428.931,-6060.23,-7002.687,1020.675,-4425.257,0
0.01657552,-8578.298,1419.842,-6089.562,-6950.064,1019.941,-4444.826,0
0.01657663,-8540.176,1411.652,-6054.794,-6907.63,1014.641,-4394.01,0
0.01657663,-8524.448,1412.17,-6032.791,-6909.057,1005.756,-4361.7,0
0.01667677,-8573.339,1413.27,-5953.043,-6946.53,1048.555,-4321.96,0
0.01657694,-8617.487,1425.022,-5959.788,-6975.748,1057.553,-4325.197,0
0.01657686,-8586.469,1428.565,-5963.899,-6951.866,1066.052,-4308.337,0
0.01657691,-8596.919,1413.977,-6009.095,-6955.349,1073.427,-4343.308,0
0.01657775,-8560.722,1418.488,-5988.497,-6927.633,1076.845,-4330.046,0
0.01657775,-8570.584,1398.906,-5964.252,-6935.224,1071.55,-4300.755,0
0.01657678,-8553.151,1453.584,-5952.194,-6926.365,1079.239,-4308.823,0
0.01657901,-8590.757,1429.436,-5996.403,-6959.574,1043.794,-4329.066,0
0.01657791,-8632.707,1379.059,-5944.505,-6982.644,1021.43,-4269.679,0
0.01657791,-8657.893,1386.497,-5911.635,-7001.648,1009.285,-4203.44,0
0.01657872,-8621.176,1397.32,-5903.615,-6973.329,1045.414,-4234.444,0
0.01657661,-8583.855,1398.449,-5874.662,-6949.153,1068.203,-4187.873,0
0.01657786,-8554.295,1394.84,-5902.752,-6922.184,1085.934,-4140.095,0
0.0165784,-8574.789,1375.139,-5878.945,-6937.975,1058.392,-4237.137,0
0.01657546,-8523.79,1379.601,-5913.717,-6907.96,1066.573,-4318.014,0
0.01657546,-8536.493,1363.743,-5992.303,-6913.448,992.7408,-4306.863,0
0.01657744,-8546.401,1329.608,-5968.142,-6921.17,983.2523,-4297.453,0
0.01657753,-8559.07,1304.932,-5963.128,-6930.943,949.4811,-4304.958,0
0.01657753,-8584.324,1271.734,-5987.679,-6941.401,901.8235,-4315.639,0
0.016585,-8614.447,1256.85,-5995.752,-6968.787,903.729,-4316.163,0
0.016585,-8623.062,1258.836,-6020.411,-6979.635,915.1587,-4317.431,0
0.01658006,-8562.488,1290.182,-6007.929,-6937.644,942.2689,-4336.277,0
0.01657562,-8613.482,1279.069,-6010.015,-6972.195,919.6271,-4354.06,0
0.01657562,-8573.328,1290.843,-6030.089,-6941.411,932.5041,-4316.583,0
0.01657584,-8584.135,1300.919,-5928.154,-6940.832,978.8967,-4253.335,0
0.01657584,-8580.378,1332.071,-5923.198,-6937.974,1004.117,-4257.283,0
0.016578,-8579.321,1291.485,-5977.42,-6937.189,944.8167,-4336.288,0
0.01657598,-8600.902,1303.849,-5989.076,-6958.118,961.0562,-4335.956,0
0.01657674,-8541.521,1278.698,-6002.005,-6903.857,958.8279,-4347.661,0
0.01657674,-8563.314,1262.724,-6039.616,-6938.401,927.9273,-4375.947,0
0.01657618,-8558.789,1258.124,-6068.739,-6926.125,929.8936,-4395.134,0
0.01657394,-8609.288,1224.389,-6075.308,-6960.314,910.9869,-4387.06,0
0.01657394,-8626.479,1201.357,-5992.362,-6977.749,884.5563,-4312.084,0
0.01657626,-8578.707,1219.172,-5967.154,-6945.534,885.7822,-4304.268,0
0.01657728,-8568.455,1190.503,-5916.999,-6928.858,875.5399,-4248.947,0
0.01657728,-8557.976,1195.206,-5948.125,-6925.36,877.5297,-4260.87,0
0.01657824,-8578.658,1190.387,-5944.193,-6941.24,890.2028,-4261.687,0
0.01657736,-8587.497,1197.02,-5930.631,-6943.559,881.6567,-4236.859,0
0.01657736,-8542.723,1151.934,-5920.763,-6909.359,854.383,-4209.927,0
0.01657409,-8536.639,1202.322,-5904.908,-6913.73,910.9208,-4238.854,0
0.01657409,-8520.191,1214.678,-5967.205,-6896.884,903.5378,-4299.951,0
0.0165719,-8503.069,1199.119,-5950.794,-6875.149,890.8918,-4258.854,0
0.01657276,-8463.438,1176.265,-6025.768,-6858.452,868.5776,-4290.136,0
0.01657276,-8555.162,1130.59,-5969.798,-6924.388,800.6804,-4256.402,0
0.01657645,-8541.368,1111.182,-5960.647,-6909.401,689.0848,-4387.952,0
0.01658395,-8563.168,1024.232,-6091.05,-6926.08,725.8599,-4349.623,0
0.01658395,-8513.85,1068.644,-6052.427,-6888.386,764.3403,-4333.046,0
0.01657964,-8491.788,1078.64,-6043.924,-6871.691,785.4335,-4352.084,0
0.01657964,-8488.094,1082.954,-6028.35,-6869.085,775.485,-4322.797,0
0.01658119,-8526.196,1084.524,-5986.981,-6898.373,770.8973,-4299.146,0
0.01658119,-8529.827,1089.063,-5989.971,-6905.612,774.9196,-4301.476,0
0.0165772,-8550.888,1116.759,-6005.081,-6926.127,785.2145,-4340.458,0
0.01657658,-8522.195,1090.432,-6029.293,-6904.142,764.1355,-4387.098,0
0.01657608,-8546.388,1075.627,-6033.733,-6904.919,757.4797,-4307.718,0
0.01657725,-8510.403,1085.183,-6032.728,-6877.43,779.6902,-4314.385,0
0.01657816,-8542.655,1062.459,-6016.73,-6911.031,766.9169,-4322.062,0
0.01657816,-8536.217,1099.421,-6050.272,-6914.941,803.0887,-4357.883,0
0.01657808,-8494.868,1136.003,-6080.836,-6878.918,799.1846,-4400.145,0
0.0165779,-8500.672,1130.746,-6079.625,-6887.922,808.1389,-4370.653,0
0.0165779,-8534.254,1155.271,-6016.935,-6900.357,855.0554,-4312.893,0
0.01657592,-8567.023,1105.677,-6044.791,-6925.357,818.3796,-4328.134,0
0.01657778,-8593.774,1083.139,-6034.272,-6954.5,761.2998,-4334.199,0
0.01657778,-8550.469,1061.78,-6046.652,-6916.768,759.5778,-4374.65,0
0.01657733,-8542.58,1090.594,-6044.25,-6910.704,805.877,-4365.759,0
0.01657733,-8496.94,1149.333,-6063.931,-6880.29,837.9958,-4367.117,0
0.01657572,-8550.258,1116.133,-6060.403,-6916.715,794.4752,-4379.806,0
0.01657587,-8562.583,1088.36,-6044.497,-6926.069,771.9008,-4367.252,0
0.01657443,-8597.34,1057.907,-6116.799,-6948.074,752.6514,-4419.613,0
0.01657615,-8591.813,1071.089,-6093.405,-6956.941,756.2803,-4397.002,0
0.01657776,-8607.261,1065.168,-6129.067,-6959.677,772.9639,-4419.051,0
0.01657648,-8545.986,1082.494,-6072.525,-6921.557,773.0077,-4359.813,0
0.01658019,-8552.276,1057.115,-6062.607,-6917.522,778.3482,-4347.526,0
0.01657467,-8538.13,1065.74,-6053.244,-6902.313,768.9672,-4358.975,0
0.01657767,-8538.756,1057.545,-6052.073,-6916.166,770.5574,-4360.328,0
0.01657767,-8549.406,1058.863,-6066.431,-6915.474,765.0112,-4387.378,0
0.01657724,-8584.342,1031.452,-6114.768,-6946.587,742.2433,-4406.206,0
0.01656763,-8518.295,1038.595,-6095.733,-6896.042,743.1804,-4421.106,0
0.01656763,-8512.973,1041.692,-6060.429,-6883.253,724.3742,-4356.593,0
0.01657505,-8524.4,1029.692,-6058.734,-6901,721.7578,-4369.765,0
0.01657955,-8497.086,1025.67,-6062.205,-6871.369,723.3053,-4354.166,0
0.01637445,-8470.174,1022.605,-6064.72,-6855.454,731.6609,-4348.939,0
0.0165736,-8456.056,1014.75,-6066.316,-6840.514,720.5432,-4350.213,0
0.0165787,-8529.129,985.3656,-6059.582,-6896.594,696.3414,-4360.902,0
0.01657465,-8546.578,1008.104,-6076.659,-6905.471,708.7012,-4379.228,0
0.01657465,-8561.059,1002.229,-6077.343,-6916.458,700.4997,-4375.543,0
0.01657457,-8551.624,1018.289,-6078.911,-6913.572,708.5018,-4373.101,0
0.01657726,-8558.197,1017.879,-6086.977,-6927.376,703.0297,-4392.519,0
0.01657726,-8558.677,1003.83,-6080.701,-6918.767,709.5821,-4364.374,0
0.01657649,-8564.184,991.2374,-6074.656,-6918.458,698.6941,-4363.91,0
0.01657852,-8495.174,1006.321,-6052.156,-6865.696,710.633,-4374.441,0
0.01657852,-8462.729,1003.355,-6042.529,-6863.276,694.5944,-4367.403,0
0.0165791,-8505.446,996.7272,-6041.642,-6882.833,728.1393,-4367.623,0
0.01657833,-8537.125,1016.91,-6031.903,-6907.095,744.1342,-4319.814,0
0.01657281,-8550.113,1021.352,-6083.005,-6916.961,721.1671,-4399.161,0
0.01657753,-8513.257,992.6882,-6128.12,-6888.736,686.547,-4420.18,0
0.01657851,-8492.815,1029.471,-6073.045,-6873.191,752.4275,-4409.459,0
0.01657733,-8545.304,1057.651,-6162.233,-6913.388,740.6009,-4422.339,0
0.01657433,-8578.208,1028.523,-6159.599,-6942.85,696.6401,-4468.224,0
0.01657823,-8579.495,972.7579,-6086.894,-6934.759,681.2642,-4389.38,0
0.01657625,-8526.588,992.2113,-6060.877,-6898.632,693.2634,-4378.117,0
0.01657625,-8572.082,989.3265,-6086.689,-6933.397,689.7837,-4403.171,0
0.01657525,-8543.164,1002.287,-6137.967,-6897.89,717.5112,-4415.417,0
0.01658014,-8543.688,1023.526,-6074.055,-6907.169,719.053,-4384.47,0
0.01657226,-8527.521,1021.34,-6102.488,-6899.252,727.8666,-4402.632,0
0.01657226,-8596.838,1023.602,-6069.815,-6956.64,722.3406,-4379.583,0
0.01655231,-8533.073,1019.33,-6088.806,-6894.438,734.8268,-4387.232,0
0.01657475,-8475.545,1037.696,-6081.382,-6859.453,733.2834,-4384.07,0
0.01657445,-8443.49,1051.935,-6057.948,-6835.243,760.6865,-4367.601,0
0.0165749,-8509.521,1023.999,-6074.264,-6881.566,735.5957,-4394.295,0
0.01657604,-8504.075,1064.574,-6101.36,-6877.481,746.0408,-4420.25,0
0.01657773,-8478.88,1074.641,-6088.994,-6849.469,754.6946,-4399.625,0
0.01657532,-8441.017,1023.488,-6117.489,-6829.621,725.7314,-4408.059,0
0.01657474,-8494.814,1043.436,-6019.707,-6870.981,734.6154,-4323.073,0
0.01657521,-8481.123,985.9453,-6040.261,-6860.586,690.1398,-4364.273,0
0.01657549,-8452.224,1011.911,-6037.614,-6838.629,707.3777,-4354.36,0
0.01657549,-8537.544,1006.355,-6019.106,-6903.957,693.5172,-4327.368,0
0.01657442,-8473.305,1031.307,-6043,-6854.775,723.473,-4354.428,0
0.01657367,-8524.393,992.1818,-6074.902,-6889.455,696.6314,-4382.478,0
0.01657367,-8506.546,1013.855,-6068.639,-6884.612,720.4984,-4365.192,0
0.01657506,-8555.985,1027.709,-6068.712,-6917.893,720.8357,-4390.464,0
0.01657493,-8517.001,1044.562,-6053.673,-6892.364,710.1372,-4367.309,0
0.01657481,-8546.154,1003.103,-6017.158,-6914.577,726.0958,-4358.589,0
0.01657673,-8465.52,1043.044,-6019.488,-6848.448,760.7618,-4304.283,0
0.01657666,-8505.923,1046.175,-6065.676,-6870.613,728.9462,-4384.09,0
0.01657666,-8539.546,996.2698,-6080.187,-6914.035,692.7309,-4387.625,0
0.01657404,-8525.01,997.4836,-6089.439,-6898.368,724.8089,-4440.842,0
0.01657422,-8521.813,1053.111,-6146.567,-6891.437,745.1581,-4417.479,0
0.01657422,-8566.325,996.5531,-6119.531,-6920.953,691.892,-4449.471,0
0.01657773,-8525.582,1007.97,-6192.501,-6898.527,695.7505,-4509.901,0
0.01657392,-8492.868,1017.658,-6132.983,-6869.095,697.6881,-4465.338,0
0.01657721,-8497.034,1012.546,-6128.524,-6881.245,696.6033,-4426.25,0
0.01657468,-8482.029,1027.284,-6136.141,-6860.989,731.1731,-4425.028,0
0.01657481,-8446.718,1031.536,-6069.724,-6838.597,724.9434,-4364.801,0
0.01657695,-8461.954,1052.195,-6045.95,-6837.175,746.7585,-4359.568,0
0.01657426,-8545.257,1017.797,-6082.054,-6909.811,732.5525,-4392.33,1
0.01657563,-8545.3,1047.891,-6104.972,-6905.239,758.5553,-4420.668,1
0.01657422,-8544.97,1038.854,-6068.987,-6900.412,739.0585,-4379.558,1
0.0165734,-8515.67,1042.697,-6085.254,-6877.93,743.3177,-4389.863,1
0.0165734,-8496.249,1063.609,-6102.044,-6871.976,761.9803,-4397.175,1
0.0165756,-8542.714,1074.418,-6020.104,-6907.505,752.081,-4349.286,1
0.01625547,-8590.837,1061.159,-6003.654,-6944.115,739.8879,-4345.023,1
0.01657582,-8616.343,1018.521,-6052.752,-6972.153,703.4016,-4355.637,1
0.01657483,-8574.265,998.4612,-6002.293,-6930.792,692.9133,-4322.227,1
0.01657483,-8578.987,999.4721,-5981.448,-6943.104,693.5772,-4316.574,1
0.01657975,-8563.855,983.5195,-6030.628,-6913.652,684.5941,-4332.55,1
0.01657554,-8619.896,965.7593,-6020.854,-6974.094,677.5925,-4314.982,1
0.01657554,-8609.353,985.0015,-6015.353,-6961.308,696.0994,-4330.633,1
0.01658145,-8601.541,1030.31,-6077.338,-6950.691,727.4735,-4400.799,1
0.01636348,-8579.95,1052.047,-6058.885,-6925.189,710.7662,-4381.29,1
0.01678698,-8595.833,1036.968,-6070.469,-6946.137,760.1176,-4392.839,1
0.01657459,-8539.744,1063.531,-6069.23,-6907.64,780.5319,-4351.908,1
0.01657468,-8550.256,1050.12,-6107.681,-6911.335,716.8945,-4426.401,1
0.01657464,-8505.515,1034.595,-6070.294,-6872.813,713.5995,-4367.981,1
0.01657603,-8539.413,1018.793,-6064.324,-6907.786,741.4315,-4441.513,1
0.01657603,-8482.063,1066.673,-6189.139,-6846.344,751.9288,-4483.451,1
0.01657532,-8505.139,1036.897,-6136.524,-6868.703,702.7495,-4489.867,1
0.01657494,-8485.892,1036.957,-6168.761,-6854.191,698.9666,-4492.52,1
0.01657494,-8524.879,1039.654,-6165.95,-6897.478,686.9522,-4542.331,1
0.01466344,-8575.778,979.5668,-6158.192,-6923.066,625.9211,-4548.697,1
0.01657498,-8560.881,988.569,-6129.408,-6924.848,658.3194,-4493.368,1
0.0165755,-8526.693,1008.046,-6156.653,-6885.361,646.5195,-4535.041,1
0.01657492,-8500.969,991.4268,-6145.035,-6870.231,660.5822,-4479.34,1
0.01657522,-8507.272,991.2725,-6117.765,-6866.335,668.6432,-4524.594,1
0.01657522,-8590.84,998.6729,-6193.243,-6934.688,673.2979,-4602.549,1
0.01657385,-8576.485,1051.06,-6153.84,-6927.951,680.6809,-4495.009,1
0.01652297,-8623.242,1012.337,-6095.768,-6959.068,685.6812,-4514.562,1
0.01662646,-8701.036,1008.429,-6147.291,-7018.153,667.2056,-4533.391,1
0.01657903,-8679.216,1023.154,-6101.721,-7014.229,664.3857,-4492.634,1
0.01657456,-8705.649,1032.107,-6057.271,-7029.53,688.424,-4429.396,1
0.01393349,-8644.841,1084.809,-6052.35,-6978.195,731.9323,-4405.702,1
0.01657667,-8628.596,1084.626,-5989.118,-6961.172,742.3459,-4364.395,1
0.01657289,-8659.771,1082.371,-5919.252,-6989.302,737.0568,-4285.813,1
0.01657707,-8661.14,1127.96,-5883.167,-6985.7,794.0874,-4253.781,1
0.01657546,-8622.733,1152.367,-5903.841,-6960.627,821.454,-4300.313,1
0.0165694,-8613.474,1137.371,-5934.566,-6949.098,841.1063,-4330.458,1
0.01657481,-8622.392,1160.821,-5956.967,-6960.355,817.8602,-4340.483,1
0.016574,-8674.187,1157.016,-5928.391,-6999.864,749.2103,-4299.019,1
0.01657674,-8658.782,1085.427,-5876.029,-6983.452,726.5099,-4274.139,1
0.01657333,-8677.098,1110.185,-5854.22,-6997.304,826.0428,-4269.104,1
0.0165776,-8650.95,1207.192,-5885.271,-6981.591,801.8104,-4285.03,1
0.01657715,-8715.279,1190.468,-5908.94,-7012.896,749.9066,-4256.942,1
0.01657715,-8697.971,1090.72,-5884.477,-7012.705,787.1446,-4238.062,1
0.0165729,-8657.726,1167.949,-5890.387,-6990.641,805.6332,-4290.612,1
0.01657517,-8644.104,1190.726,-5931.975,-6980.194,747.183,-4282.15,1
0.01657308,-8643.867,1152.489,-5900.159,-6971.16,768.8343,-4235.013,1
0.01657308,-8684.616,1161.233,-5867.701,-7011.155,779.8643,-4240.441,1
0.01657653,-8725.051,1167.346,-5902.104,-7041.869,764.7563,-4267.021,1
0.01666969,-8656.314,1209.978,-5872.766,-6980.25,802.2056,-4228.16,1
0.01666969,-8592.543,1190.759,-5825.586,-6931.598,810.5559,-4160.582,1
0.01657586,-8617.611,1235.719,-5829.767,-6951,775.9958,-4217.452,1
0.01657453,-8590.521,1214.593,-5827.117,-6930.464,816.4528,-4196.911,1
0.01657507,-8606.06,1227.616,-5840.542,-6951.417,885.4441,-4208.044,1
0.01657791,-8620.02,1298.877,-5854.863,-6953.336,920.9075,-4209.524,1
0.01657824,-8628.218,1305.492,-5865.052,-6968.534,914.8668,-4217.484,1
0.0165758,-8656.491,1288.146,-5818.103,-6981.271,891.9822,-4152.136,1
0.0165758,-8690.539,1318.983,-5834.911,-7024.913,845.0902,-4199.387,1
0.01657681,-8650.592,1297.18,-5850.229,-6972.029,864.7219,-4185.776,1
0.01657681,-8620.063,1299.761,-5786.796,-6953.151,909.6463,-4143.604,1
0.01657512,-8644.489,1358.182,-5771.511,-6985.191,928.7086,-4120.395,1
0.01657536,-8590.333,1386.692,-5794.056,-6939.389,964.6891,-4131.092,1
0.01657536,-8570.971,1377.101,-5805.883,-6915.935,990.8813,-4147.616,1
0.01657627,-8589.846,1367.792,-5802.132,-6926.173,953.0576,-4146.892,1
0.01657627,-8618.914,1330.686,-5817.287,-6948.531,907.4716,-4102.706,1
0.016575,-8565.176,1288.978,-5792.565,-6916.414,944.4485,-4186.266,1
0.01657183,-8616.149,1378.087,-5830.039,-6951.114,971.6291,-4193.065,1
0.01657385,-8643.839,1364.173,-5916.086,-6967.83,893.0704,-4253.458,1
0.01657385,-8598.942,1311.652,-5883.311,-6937.905,894.6819,-4210.095,1
0.01657248,-8566.148,1349.446,-5854.393,-6912.959,964.2465,-4222.779,1
0.01648893,-8598.221,1369.23,-5857.362,-6942.073,919.847,-4233.54,1
0.01665377,-8597.299,1357.231,-5844.435,-6936.985,925.4924,-4190.049,1
0.016571,-8683.194,1316.005,-5803.407,-7002.605,942.092,-4166.513,1
0.0165736,-8623.47,1371.858,-5785.557,-6961.168,959.1882,-4155.819,1
0.01657447,-8596.141,1391.375,-5805.283,-6935.846,969.1689,-4147.542,1
0.01657447,-8644.421,1376.596,-5842.321,-6981.649,975.0867,-4192.038,1
0.01657306,-8630.614,1373.156,-5836.473,-6962.121,983.0574,-4158.46,1
0.01657306,-8642.207,1415.613,-5827.44,-6966.499,986.1922,-4197.042,1
0.01657353,-8651.023,1355.691,-5879.12,-6977.59,1011.083,-4209.055,1
0.01657353,-8579.642,1453.225,-5908.099,-6931.859,1101.151,-4248.195,1
0.01657304,-8630.096,1460.668,-5894.563,-6957.237,1097.687,-4232.87,1
0.01657481,-8560.88,1497.36,-5910.322,-6904.381,1127.681,-4236.401,1
0.01657481,-8558.334,1520.803,-5865.167,-6907.115,1107.036,-4209.2,1
0.01657039,-8577.275,1508.859,-5850.952,-6921.792,1029.531,-4204.964,1
0.01657039,-8568.702,1444.787,-5880.956,-6915.37,1013.302,-4213.477,1
0.01657266,-8609.354,1415.664,-5868.565,-6950.972,1010.936,-4194.253,1
0.01657433,-8628.817,1411.636,-5907.024,-6970.22,991.2435,-4239.678,1
0.01657433,-8657.829,1384.426,-5929.431,-6978.952,980.773,-4254.11,1
0.01657349,-8572.368,1388.73,-5860.466,-6917.96,974.2152,-4162.731,1
0.01656836,-8544.659,1370.541,-5807.26,-6892.528,978.4526,-4190.663,1
0.01656836,-8537.636,1392.761,-5843.232,-6896.279,986.4099,-4200.569,1
0.01657875,-8606.11,1396.698,-5797.701,-6939.914,955.6823,-4194.672,1
0.01657323,-8636.157,1377.718,-5866.47,-6967.241,923.8568,-4220.737,1
0.01657323,-8641.403,1332.523,-5891.9,-6971.086,956.0372,-4242.579,1
0.01657288,-8647.499,1372.896,-5913.996,-6975.578,941.0914,-4292.521,1
0.01657288,-8631.929,1403.693,-5954.135,-6972.387,948.9489,-4259.438,1
0.01657133,-8686.976,1389.809,-5916.322,-7001.003,1005.689,-4237.774,1
0.01657133,-8616.645,1432.08,-5899.608,-6951.471,994.6868,-4254.53,1
0.01657608,-8601.994,1450.114,-5946.665,-6944.731,1027.718,-4269.847,1
0.01657219,-8543.72,1458.555,-5902.758,-6891.443,1033.663,-4232.5,1
0.01657219,-8571.912,1431.847,-5871.915,-6913.257,1047.113,-4188.71,1
0.01733657,-8558.866,1485.163,-5862.903,-6903.453,1018.673,-4241.236,1
0.01733657,-8493.95,1455.412,-5934.166,-6858.518,1068.318,-4258.268,1
0.01657145,-8547.489,1469.915,-5922.657,-6904.221,1089.956,-4271.195,1
0.01657464,-8587.068,1466.239,-5920.206,-6916.853,1104.311,-4254.214,1
0.01657011,-8509.241,1492.443,-5890.487,-6870.756,1113.509,-4217.311,1
0.01657194,-8508.587,1516.866,-5874.481,-6866.109,1082.805,-4217.617,1
0.01657194,-8569.562,1497.497,-5915.798,-6917.348,1009.31,-4260.044,1
0.01657105,-8563.366,1438.966,-5879.491,-6917.041,1011.953,-4232.78,1
0.01657152,-8560.923,1449.942,-5920.699,-6915.183,1040.078,-4237.14,1
0.01657259,-8548.438,1480.327,-5932.84,-6901.236,1019.78,-4269.891,1
0.01657273,-8604.303,1423.765,-5954.435,-6948.381,1005.379,-4266.839,1
0.01657273,-8551.606,1420.627,-5947.484,-6903.566,1023.881,-4257.483,1
0.01657063,-8562.785,1427.122,-5887.021,-6912.167,999.2823,-4254.971,1
0.01657063,-8572.714,1390.679,-5958.243,-6910.902,957.1743,-4303.825,1
0.01657159,-8598.331,1419.653,-5954.413,-6943.748,963.4977,-4285.435,1
0.01657341,-8607.834,1363.741,-5923.544,-6950.873,978.3134,-4260.88,1
0.01657303,-8538.906,1435.153,-5955.679,-6893.676,1002.869,-4312.528,1
0.01657227,-8559.511,1461.711,-5980.608,-6900.68,1000.433,-4303.935,1
0.0165715,-8588.206,1428.775,-5961.614,-6935.943,1029.247,-4278.697,1
0.0165715,-8575.239,1467.414,-5992.04,-6917.1,1032.392,-4332.292,1
0.01657486,-8590.718,1475.229,-6023.929,-6933.343,1052.358,-4338.916,1
0.01657141,-8547.688,1485.904,-5987.67,-6895.994,1051.196,-4294.299,1
0.01657094,-8538.04,1487.046,-5963.36,-6888.739,1079.589,-4260.122,1
0.01657219,-8461.729,1497.476,-5951.624,-6826.193,1036.925,-4318.215,1
0.01657219,-8497.37,1473.54,-5967.218,-6862.684,1060.905,-4277.972,1
0.01657291,-8514.466,1493.997,-6015.044,-6862.659,1088.039,-4350.192,1
0.01657329,-8547.849,1503.479,-6037.925,-6888.301,1123.045,-4374.306,1
0.01657314,-8496.598,1484.565,-5982.905,-6866.919,1100.848,-4274.907,1
0.01657487,-8459.356,1542.729,-5905.719,-6829.798,1132.345,-4263.655,1
0.01657625,-8465.606,1552.088,-5901.761,-6839.313,1064.929,-4242.016,1
0.01656599,-8458.749,1477.024,-5943.062,-6829.892,1038.757,-4254.125,1
0.01657391,-8530.458,1452.624,-5901.488,-6884.882,1053.987,-4229.699,1
0.01657391,-8473.917,1493.17,-5936.211,-6841.674,1050.117,-4265.305,1
0.01657487,-8491.976,1472.473,-5989.017,-6846.769,1065.883,-4308.164,1
0.01656833,-8514.819,1496.731,-5961.847,-6873.173,1091.601,-4237.141,1
0.01656833,-8464.122,1485.291,-5863.236,-6830.029,1031.247,-4246.972,1
0.01717337,-8451.23,1495.642,-5950.797,-6815.948,1032.011,-4304.649,1
0.01657099,-8482.788,1464.135,-5994.869,-6853.56,983.6219,-4348.174,1
0.01657099,-8551.525,1432.84,-6036.775,-6897.219,982.0935,-4326.442,1
0.01657149,-8529.357,1449.661,-5989.929,-6888.964,1025.927,-4340.257,1
0.01657321,-8468.638,1484.428,-6022.472,-6842.507,1003.536,-4362.424,1
0.01657241,-8476.414,1455.158,-6031.395,-6839.716,1010.054,-4300.549,1
0.0165741,-8475.501,1459.145,-5962.832,-6834.698,1022.058,-4212.081,1
0.04971693,-8531.6,1439.59,-5892.011,-6890.925,1011.892,-4197.3,1
0.04971693,-8547.91,1447.432,-5894.396,-6898.799,1000.818,-4223.048,1
0.01657238,-8530.483,1471.193,-5911.087,-6880.883,1048.143,-4222.224,1
0.01657107,-8491.195,1535.06,-5896.285,-6859.671,1101.264,-4209.758,1
0.01657107,-8478.336,1536.635,-5924.674,-6845.479,1095.788,-4275.44,1
0.01657277,-8449.858,1547.669,-5977.203,-6828.281,1129.7,-4286.198,1
0.01657054,-8481.209,1551.123,-6001.931,-6852.407,1153.048,-4337.358,1
0.01657305,-8450.995,1567.511,-6019.768,-6824.967,1173.229,-4265.676,1
0.01657107,-8434.6,1585.862,-5939.273,-6808.193,1201.791,-4233.747,1
0.01657194,-8450.799,1566.255,-5930.478,-6820.786,1140.113,-4268.987,1
0.01657194,-8434.002,1559.773,-5973.034,-6808.104,1100.316,-4290.176,1
0.01657271,-8424.492,1523.653,-6005.786,-6805.465,1115.015,-4290.997,1
0.01657504,-8470.313,1528.21,-5968.594,-6840.635,1099.336,-4297.634,1
0.01657504,-8496.131,1497.353,-5988.006,-6860.34,1051.947,-4320.141,1
0.01395566,-8462.368,1507.761,-5994.001,-6825.605,1095.774,-4304.348,1
0.01918943,-8457.99,1550.202,-5980.683,-6831.185,1102.986,-4318.165,1
0.01656874,-8442.375,1503.563,-6028.819,-6819.315,1067.573,-4340.403,1
0.01656874,-8431.181,1473.228,-5999.062,-6815.305,1062.242,-4277.288,1
0.03314234,-8437.105,1456.026,-5918.595,-6811.09,989.1771,-4260.719,1
0.01657445,-8462.796,1437.005,-6034.622,-6839.671,949.2484,-4372.469,1
0.01657445,-8464.717,1430.161,-6038.978,-6832.254,990.9907,-4299.035,1
0.01657332,-8480.078,1462.454,-5991.474,-6843.973,1031.185,-4293.661,1
0.03314501,-8412.545,1464.554,-5999.541,-6792.358,1014.907,-4346.065,1
0.03314282,-8336.679,1478.825,-6038.412,-6743.511,1008.767,-4357.32,1
0.03314282,-8419.396,1453.189,-6085.559,-6798.238,1032.788,-4387.538,1
0.01657389,-8402.695,1482.762,-6088.36,-6790.024,1046.319,-4425.03,1
0.01657389,-8417.608,1490.899,-6081.169,-6801.553,1048.646,-4391.977,1
0.04971871,-8448.669,1507.052,-6053.341,-6829.766,1073.686,-4353.275,1
0.01657345,-8440.292,1511.701,-6003.649,-6814.444,1100.66,-4316.896,1
0.01657274,-8437.417,1507.798,-6034.6,-6821.107,1044.055,-4396.83,1
0.01657354,-8441.396,1482.161,-6061.288,-6810.837,1080.133,-4356.659,1
0.01657553,-8404.731,1523.032,-6052.563,-6791.715,1094.116,-4376.195,1
0.0331429,-8409.053,1560.159,-6085.112,-6786.273,1171.873,-4424.176,1
0.0331429,-8455.965,1551.704,-6102.71,-6826.626,1176.104,-4374.174,1
0.01657174,-8394.819,1609.972,-6069.768,-6784.294,1203.067,-4386.233,1
0.01657043,-8380.284,1611.267,-6024.59,-6768.912,1112.172,-4337.502,1
0.01657043,-8374.251,1528.126,-6026.152,-6760.07,1083.924,-4334.36,1
0.01657305,-8444.137,1497.666,-5997.254,-6818.052,1073.443,-4330.67,1
0.01657233,-8404.24,1514.134,-6020.067,-6787.504,1031.845,-4281.211,1
0.01657233,-8362.09,1487.992,-5976.865,-6759.829,1072.98,-4302.99,1
0.01657337,-8400.945,1517.386,-6004.85,-6776.408,1090.261,-4312.659,1
0.01656818,-8481.29,1489.623,-6071.087,-6851.1,1058.816,-4412.353,1
0.01656818,-8453.997,1495.587,-6077.352,-6821.129,1067.646,-4402.747,1
0.01657342,-8391.04,1512.401,-6071.972,-6777.384,1096.068,-4338.87,1
0.01657204,-8472.888,1542.995,-5989.778,-6839.983,1067.324,-4333.688,1
0.01657115,-8414.256,1507.663,-6084.557,-6795.025,1024.542,-4419.749,1
0.01657032,-8430.837,1446.257,-6122.477,-6807.727,1002.742,-4390.546,1
0.01657351,-8426.135,1460.912,-6084.34,-6808.544,1032.517,-4410.48,1
0.01657212,-8414.561,1483.899,-6107.159,-6795.264,1038.887,-4459.283,1
0.01657212,-8428.808,1472.262,-6117.595,-6806.182,1029.546,-4422.057,1
0.01657263,-8434.934,1466.356,-6082.201,-6819.703,1042.618,-4379.025,1
0.01657282,-8499.508,1460.962,-6066.942,-6864.504,1030.015,-4398.086,1
0.01657175,-8477.007,1483.575,-6090.357,-6842.608,1059.868,-4409.273,1
0.01657524,-8440.13,1485.386,-6091.052,-6827.591,1072.052,-4383.105,1
0.01657197,-8384.285,1521.269,-6106.422,-6776.069,1114.643,-4384.827,1
0.01657201,-8420.384,1564.749,-6076.644,-6799.397,1127.693,-4395.812,1
0.01657098,-8459.352,1543.406,-6059.547,-6838.06,1092.546,-4381.627,1
0.01657346,-8431.221,1569.518,-6064.243,-6807.604,1146.955,-4380.824,1
0.01657346,-8386.874,1574.298,-6089.141,-6773.772,1166.086,-4423.679,1
0.01657237,-8459.763,1567.555,-6076.406,-6829.598,1185.816,-4368.971,1
0.01657265,-8409.334,1592.295,-6073.334,-6790.992,1176.409,-4371.099,1
0.0165724,-8428.616,1584.757,-6066.143,-6805.804,1128.797,-4396.39,1
0.0165744,-8487.603,1529.299,-6035.649,-6855.27,1089.906,-4335.997,1
0.01657221,-8416.673,1529.498,-6032.816,-6787.606,1111.169,-4345.66,1
0.01657058,-8470.209,1500.368,-5994.962,-6833.002,1066.508,-4323.292,1
0.01657058,-8500.402,1487.398,-5992.523,-6864.785,1060.655,-4312.285,1
0.01657216,-8463.546,1438.806,-5962.227,-6823.109,1025.14,-4279.183,1
0.0165753,-8443.769,1452.975,-6007.075,-6825.688,1019.691,-4328.198,1
0.0165753,-8468.997,1450.226,-6018.161,-6840.505,1042.261,-4331.532,1
0.0165753,-8468.058,1487.681,-6023.023,-6835.263,1065.533,-4336.44,1
0.01657139,-8463.969,1500.03,-5985.854,-6832.071,1052.314,-4328.343,1
0.01657024,-8453.721,1471.14,-6037.417,-6819.771,1052.479,-4344.033,1
0.01657132,-8414.399,1486.898,-6003.998,-6794.195,1079.024,-4305.218,1
0.0165712,-8460.333,1472.892,-5986.619,-6829.404,1008.245,-4321.179,1
0.0165712,-8466.196,1463.218,-6059.909,-6833.835,999.3958,-4419.353,1
0.01657182,-8438.505,1451.133,-6066.123,-6817.066,1026.668,-4350.723,1
0.01657257,-8427.924,1452.241,-6075.517,-6800.167,1027.948,-4436.182,1
0.01657257,-8354.157,1494.353,-6117.38,-6743.957,1040.01,-4461.753,1
0.0331444,-8396.809,1479.222,-6105.512,-6772.45,1052.282,-4386.651,1
0.0331444,-8394.438,1515.214,-6081.063,-6779.678,1100.536,-4401.609,1
0.04970787,-8379.077,1526.495,-6069.113,-6768.097,1093.737,-4384.047,0
0.01657268,-8413.611,1528.867,-6076.659,-6794.645,1101.198,-4381.446,0
0.01657264,-8468.317,1491.195,-6070.176,-6836.437,1073.933,-4359.269,0
0.01656982,-8429.229,1527.913,-6056.532,-6801.989,1102.781,-4341.943,0
0.03314317,-8473.752,1523.253,-6036.703,-6840.406,1074.976,-4389.754,0
0.01657164,-8533.995,1521.837,-6050.053,-6881.78,1106.789,-4347.606,0
0.01657164,-8468.893,1554.925,-6048.874,-6836.136,1143.83,-4379.734,0
0.01657368,-8483.688,1548.666,-6059.066,-6847.331,1152.635,-4387.508,0
0.01657413,-8471.059,1552.935,-6074.941,-6833.113,1172.269,-4365.793,0
0.01657413,-8508.841,1553.282,-6017.299,-6861.882,1155.924,-4336.724,0
0.01657127,-8520.679,1553.844,-5990.785,-6875.142,1076.11,-4318.313,0
0.01657505,-8465.217,1487.188,-6017.936,-6836.998,1083.385,-4323.218,0
0.01657505,-8510.222,1449.682,-6010.772,-6858.046,1037.707,-4326.486,0
0.0165725,-8415.396,1462.649,-6004.562,-6789.943,1017.984,-4320.502,0
0.0165725,-8408.9,1451.162,-6038.915,-6780.771,1039.955,-4343,0
0.0165677,-8404.335,1473.758,-6033.999,-6786.377,1054.931,-4342.029,0
0.01503087,-8484.171,1472.053,-6044.359,-6847.519,1045.714,-4356.609,0
0.01657561,-8519.774,1469.561,-6002.313,-6861.274,1048.092,-4321.711,0
0.01657561,-8440.342,1489.227,-6006.756,-6822.579,1037.738,-4326.072,0
0.01657083,-8420.746,1491.356,-6034.577,-6798.817,1057.447,-4341.595,0
0.01657474,-8377.229,1524.199,-6039.815,-6761.316,1103.036,-4353.07,0
0.01656886,-8394.26,1509.096,-6052.992,-6770.193,1069.202,-4381.646,0
0.01657078,-8440.062,1482.055,-6072.523,-6809.804,1065.152,-4356.825,0
0.01656973,-8490.342,1443.55,-6012.426,-6852.625,1039.405,-4347.134,0
0.01656526,-8437.622,1471.66,-6062.676,-6816.619,1016.727,-4378.075,0
0.03314505,-8444.415,1430.083,-6078.485,-6812.96,984.5873,-4424.641,0
0.03314505,-8483.722,1427.941,-6120.527,-6838.544,1012.88,-4381.432,0
0.01656704,-8406.793,1475.3,-6065.063,-6788.554,1060.588,-4437.202,0
0.01657138,-8380.869,1470.813,-6113.097,-6773.355,1029.165,-4437.114,0
0.01650834,-8378.338,1483.37,-6050.7,-6762.791,1064.564,-4326.617,0
0.01663131,-8446.936,1492.692,-5998.361,-6810.956,1046.144,-4348.56,0
0.01657202,-8408.437,1487.42,-6053.019,-6785.956,1077.542,-4355.844,0
0.01657154,-8420.417,1499.187,-6035.363,-6795.198,1090.594,-4327.163,0
0.01657164,-8394.304,1504.613,-6004.675,-6779.738,1103.746,-4301.651,0
0.01657164,-8421.373,1522.273,-5999.792,-6800.527,1111.254,-4293.174,0
0.01657317,-8421.792,1533.355,-6025.682,-6800.855,1068.838,-4351.396,0
0.01656955,-8402.109,1498.555,-6007.147,-6781.407,1064.884,-4320.382,0
0.01656384,-8358.512,1488.873,-6020.1,-6743.788,1077.426,-4358.376,0
0.01633331,-8357.675,1515.078,-6071.355,-6752.27,1113.201,-4400.276,0
0.01656996,-8451.911,1490.247,-6079.966,-6819.983,1128.164,-4374.804,0
0.01656996,-8481.432,1519.309,-6072.504,-6842.356,1153.003,-4372.018,0
0.01656943,-8458.409,1546.96,-6082.451,-6820.094,1089.975,-4409.976,0
0.01656943,-8474.459,1465.347,-6096.908,-6836.646,1034.767,-4357.118,0
0.0165638,-8416.035,1465.38,-6059.667,-6787.431,1056.314,-4334.975,0
0.01657218,-8450.43,1449.886,-6041.66,-6822.615,998.9185,-4352.854,0
0.01656885,-8403.05,1443.895,-6008.87,-6777.494,992.4047,-4333.686,0
0.01656977,-8384.136,1398.207,-6032.019,-6772.039,982.7283,-4325.197,0
0.01656977,-8463.213,1390.073,-6034.493,-6832.559,972.7266,-4325.253,0
0.01657003,-8504.95,1400.523,-6022.444,-6859.825,984.1118,-4329.992,0
0.01657577,-8457.941,1419.502,-6052.76,-6828.079,994.7198,-4351.011,0
0.01657577,-8416.92,1448.865,-6055.532,-6783.382,1027.562,-4346.729,0
0.01657037,-8416.042,1459.638,-6064.417,-6787.25,1003.407,-4378.417,0
0.01657037,-8450.114,1419.045,-6080.811,-6817.776,981.3383,-4425.718,0
0.01656607,-8414.709,1434.468,-6074.681,-6781.826,1044.254,-4365.134,0
0.01656607,-8464.834,1442.751,-6085.831,-6829.049,1034.227,-4416.51,0
0.01657343,-8458.767,1437.285,-6132.718,-6819.863,1002.356,-4459.583,0
0.01657065,-8411.771,1431.798,-6142.042,-6788.346,1034.251,-4422.572,0
0.01657065,-8394.394,1441.831,-6045.846,-6770.752,1048.013,-4374.079,0
0.01656972,-8395.5,1493.313,-6091.879,-6780.627,1074.252,-4465.791,0
0.01656972,-8491.818,1454.472,-6137.48,-6854.274,1067.108,-4467.959,0
0.01656922,-8488.114,1444.481,-6126.625,-6846.757,1054.689,-4397.601,0
0.01657446,-8403.488,1455.992,-6044.953,-6786.386,1040.739,-4418.523,0
0.01657446,-8398.39,1445.292,-6099.788,-6773.764,972.1789,-4475.651,0
0.01656944,-8380.028,1417.339,-6134.446,-6764.336,1018.302,-4445.676,0
0.0165693,-8423.979,1423.958,-6093.565,-6793.653,1015.977,-4412.616,0
0.0165693,-8440.909,1389.028,-6089.287,-6806.595,985.7933,-4383.306,0
0.01656869,-8509.481,1408.239,-6003.768,-6872.184,1003.163,-4325.847,0
0.01656722,-8548.27,1402.823,-5976.778,-6888.163,1004.125,-4331.369,0
0.01656722,-8457.037,1413.643,-6030.145,-6813.675,985.0737,-4302.963,0
0.01656715,-8396.668,1406.933,-6003.155,-6776.445,998.0696,-4374.038,0
0.01657106,-8376.128,1421.409,-6026.717,-6756.537,1038.841,-4351.185,0
0.01656681,-8430.96,1447.043,-6042.596,-6803.089,1107.385,-4457.604,0
0.01656723,-8453.331,1521.422,-6171.556,-6811.321,1098.83,-4467.819,0
0.01657113,-8410.838,1451.347,-6095.835,-6778.836,1065.476,-4430.36,0
0.01656809,-8417.108,1457.832,-6101.346,-6788.172,1074.485,-4441.904,0
0.01656809,-8456.459,1463.495,-6147.679,-6813.849,1035.76,-4423.934,0
0.01656934,-8440.588,1423.84,-6019.6,-6810.521,1014.044,-4331.504,0
0.01657085,-8502.263,1397.352,-6057.708,-6853.139,1015.532,-4375.292,0
0.01657085,-8452.651,1421.91,-6058.093,-6819.45,1029.992,-4352.409,0
0.01656989,-8481.094,1379.855,-6000.825,-6841.117,992.1198,-4321.563,0
0.01657269,-8444.353,1383.21,-6005.224,-6812.925,1019.544,-4324.948,0
0.0165658,-8415.022,1401.016,-6019.164,-6781.683,1036.304,-4338.612,0
0.01656855,-8500.922,1400.591,-6039.773,-6847.394,1035.738,-4370.851,0
0.01656598,-8461.288,1433.426,-6037.905,-6821.368,1117.609,-4414.046,0
0.01657057,-8524.404,1444.918,-6086.422,-6865.075,1098.185,-4424.707,0
0.016571,-8519.923,1422.099,-6034.568,-6870.25,1064.246,-4375.525,0
0.0165698,-8557.973,1402.72,-6070.086,-6894.623,1035.292,-4401.585,0
0.01656805,-8515.336,1385.06,-6056.717,-6866.159,1022.162,-4383.266,0
0.01656805,-8443.523,1388.44,-6047.116,-6806.754,1021.551,-4352.392,0
0.01656989,-8464.66,1382.551,-5999.194,-6814.171,1005.536,-4332.514,0
0.01656898,-8484.812,1331.673,-6019.659,-6838.484,987.8967,-4378.268,0
0.0165704,-8481.233,1333.972,-6074.689,-6831.284,970.2676,-4374.075,0
0.01657349,-8474.604,1329.636,-6049.257,-6830.646,962.2573,-4401.96,0
0.01657207,-8553.885,1270.625,-6024.015,-6895.602,906.1382,-4333.886,0
0.01657207,-8574.493,1259.204,-6035.194,-6902.163,946.3878,-4356.971,0
0.01656782,-8496.08,1321.445,-5964.308,-6850.839,1020.588,-4255.285,0
0.01657061,-8511.048,1363.902,-5989.929,-6862.25,1056.638,-4405.716,0
0.01657255,-8493.123,1393.579,-6080.733,-6852.928,991.6401,-4410.769,0
0.01657148,-8545.803,1285.057,-6017.91,-6888.704,976.6201,-4387.529,0
0.01656925,-8596.253,1278.232,-6085.414,-6922.587,969.4257,-4436.838,0
0.01657049,-8504.392,1268.543,-6051.999,-6843.248,963.9276,-4416.891,0
0.01656871,-8561.127,1280.1,-6011.127,-6882.178,954.7146,-4373.948,0
0.01656827,-8606.275,1255.547,-6045.909,-6934.207,917.6304,-4384.517,0
0.01657183,-8590.349,1241.898,-6019.634,-6912.832,918.0615,-4365.822,0
0.01657009,-8620.262,1220.409,-6002.077,-6939.862,864.5884,-4338.925,0
0.01657016,-8580.784,1202.097,-5978.334,-6909.396,859.9219,-4239.543,0
0.01656978,-8593.86,1193.461,-5920.408,-6914.801,896.1535,-4227.598,0
0.01657276,-8516.95,1203.837,-5948.375,-6860.356,929.8911,-4284.643,0
0.01657276,-8468.758,1242.071,-5966.872,-6823.704,940.1705,-4308.459,0
0.0165707,-8477.572,1221.221,-6006.323,-6839.599,869.7738,-4403.537,0
0.01657095,-8484.434,1163.175,-6050.155,-6836.19,859.2485,-4403.328,0
0.01656842,-8544.059,1168.821,-6090.738,-6881.89,877.7943,-4414.411,0
0.01712755,-8559.044,1187.763,-6057.899,-6893.266,877.5905,-4423.369,0
0.01656944,-8517.783,1217.752,-6098.854,-6861.658,858.33,-4443.318,0
0.01657203,-8482.564,1164.419,-6068.349,-6834.832,792.5944,-4457.082,0
0.01657203,-8472.19,1096.804,-6089.68,-6835.962,789.8672,-4416.32,0
0.01657217,-8481.007,1124.072,-6029.461,-6834.014,851.3619,-4384.839,0
0.01657252,-8581.594,1143.749,-6003.167,-6910.945,845.6038,-4340.145,0
0.01657252,-8625.832,1134.026,-6035.603,-6944.462,832.0242,-4352.064,0
0.01656954,-8624.493,1138.284,-6007.132,-6943.047,838.2841,-4324.58,0
0.01656668,-8610.859,1147.711,-5971.875,-6923.434,847.8867,-4292.862,0
0.01657088,-8503.646,1152.984,-6014.38,-6845.792,850.6564,-4354.691,0
0.01657091,-8533.024,1126.406,-6018.564,-6877.273,838.2204,-4337.158,0
0.01657057,-8552.738,1099.34,-6012.967,-6887.929,810.8081,-4306.367,0
0.01657297,-8584.129,1136.244,-6009.482,-6907.428,771.1191,-4371.98,0
0.01657129,-8571.218,1028.576,-6023.15,-6897.435,760.0862,-4318.425,0
0.01657005,-8545.764,1049.437,-6001.061,-6873.5,767.6263,-4326.846,0
0.01657069,-8551.854,1088.832,-6004.291,-6887.054,813.5718,-4314.178,0
0.01657069,-8577.735,1085.387,-6011.325,-6902.373,817.1743,-4336.552,0
0.01656915,-8551.7,1108.216,-5990.825,-6891.268,757.1777,-4346.97,0
0.0165694,-8539.869,1035.898,-5996.64,-6873.371,771.1328,-4288.313,0
0.0165694,-8500.752,1098.965,-5908.695,-6839.143,855.2966,-4210.269,0
0.01657395,-8478.094,1134.545,-5944.745,-6822.062,869.6581,-4253.802,0
0.01657188,-8541.748,1127.648,-5981.696,-6879.791,807.7369,-4231.05,0
0.0165689,-8503.955,1106.835,-5936.814,-6846.495,809.3096,-4245.478,0
0.01656731,-8438.728,1081.506,-5981.37,-6805.708,815.5062,-4319.629,0
0.01657126,-8469.91,1090.772,-6066.919,-6821.001,788.0456,-4379.639,0
0.01657126,-8449.723,1029.99,-6072.626,-6801.376,738.7206,-4377.837,0
0.01657031,-8466.01,1039.115,-6024.387,-6831.813,729.1365,-4339.872,0
0.01657031,-8553.722,999.9775,-6014.052,-6885.618,706.2186,-4358.479,0
0.0165705,-8604.704,1007.236,-6051.456,-6919.926,697.7676,-4353.417,0
0.01657155,-8535.34,1004.479,-6050.736,-6879.931,722.0666,-4329.722,0
0.01657155,-8568.896,997.9026,-6010.345,-6892.183,710.6805,-4312.098,0
0.01657046,-8508.316,990.5991,-6011.302,-6850.213,719.7968,-4331.986,0
0.01656621,-8559.351,987.8775,-6002.154,-6893.68,721.8502,-4306.721,0
0.01656621,-8511.622,1001.876,-6036.061,-6857.113,739.4096,-4326.304,0
0.01657192,-8574.53,988.8755,-6025.522,-6905.196,720.2031,-4348.12,0
0.01656878,-8523.635,982.1246,-6007.807,-6857.299,721.3326,-4311.539,0
0.01656878,-8481.476,1029.709,-6016.414,-6825.169,745.0959,-4322.041,0
0.03313866,-8444.906,1020.217,-5991.229,-6797.462,715.9785,-4294.792,0
0.01657126,-8445.082,1016.852,-5970.493,-6806.783,712.3938,-4300.133,0
0.01657126,-8545.559,995.3771,-5981.377,-6883.746,701.6379,-4291.965,0
0.01656866,-8522.355,964.0429,-5970.819,-6857.024,680.3686,-4294.272,0
0.0165724,-8561.693,963.5346,-5963.855,-6895.893,671.3715,-4297.667,0
0.01657082,-8505.952,956.9073,-5974.333,-6848.724,672.9298,-4296.366,0
0.01655436,-8484.294,971.6387,-6011.094,-6832.246,681.913,-4329.498,0
0.01656931,-8540.5,945.4467,-6019.765,-6875.28,660.9668,-4331.887,0
0.01656931,-8491.369,976.1906,-6022.606,-6828.817,682.7359,-4338.672,0
0.01657073,-8466.998,970.8092,-6025.477,-6823.628,677.8976,-4337.715,0
0.01656724,-8528.566,980.5165,-6016.889,-6866.364,686.2501,-4326.909,0
0.01656724,-8584.475,944.8792,-5972.012,-6904.535,671.5705,-4307.844,0
0.01656795,-8525.899,931.5953,-6011.802,-6863.983,666.024,-4334.993,0
0.01656999,-8547.997,950.8084,-6048.04,-6871.963,669.243,-4370.629,0
0.01656999,-8580.602,964.4755,-6016.394,-6905.625,659.8521,-4336.296,0
0.01656893,-8505.33,969.5731,-5952.397,-6834.653,703.7209,-4288.514,0
0.01656994,-8450.006,974.3359,-5972.527,-6810.268,715.3651,-4283.869,0
0.01657029,-8461.54,984.2995,-6037.816,-6810.489,696.3264,-4362.937,0
0.01657269,-8507.366,975.23,-6009.543,-6850.124,679.4043,-4315.696,0
0.0165698,-8444.674,1021.02,-5994.425,-6797.851,753.161,-4335.457,0
0.0165698,-8453.67,1019.641,-6069.369,-6796.118,747.7196,-4377.147,0
0.01657123,-8489.132,982.0347,-6120.957,-6832.268,677.8314,-4427.344,0
0.01657006,-8519.068,956.2839,-6061.427,-6868.451,663.2239,-4371.48,0
0.01656931,-8533.363,904.2626,-6056.156,-6874.821,631.6904,-4389.738,0
0.01657101,-8546.952,963.5304,-6054.451,-6880.62,674.1935,-4376.085,0
0.01656888,-8521.303,969.5456,-6028.368,-6852.01,692.4105,-4330.582,0
0.0165701,-8541.459,986.8127,-6003.556,-6867.363,687.3074,-4331.639,0
0.01656841,-8526.515,974.0118,-6024.412,-6855.851,694.9548,-4359.568,0
0.01657164,-8468.917,985.3894,-6032.485,-6816.279,700.023,-4365.159,0
0.016567,-8519.676,932.7191,-6032.287,-6846.339,676.386,-4350.008,0
0.016567,-8551.538,961.2754,-6043.943,-6879.507,681.4095,-4375.793,0
0.01656949,-8475.958,980.6686,-6049.192,-6821.658,703.4489,-4374.173,0
0.01657109,-8468.38,972.0021,-6033.46,-6816.025,684.0348,-4353.77,0
0.01656971,-8442.083,968.2246,-6039.996,-6800.545,666.7592,-4365.409,0
0.01656971,-8422.725,972.78,-6035.574,-6781.573,677.2152,-4367.258,0
0.01656944,-8478.301,977.4796,-6042.499,-6824.289,683.0341,-4344.266,0
0.01657209,-8471.179,984.1414,-6008.29,-6814.469,699.4655,-4331.459,0
0.01656741,-8428.295,997.7684,-6016.327,-6786.247,700.1152,-4346.291,0
0.01657096,-8410.247,974.9144,-6027.735,-6781.558,687.0187,-4358.095,0
0.01656797,-8485.576,975.9688,-6029.012,-6830.446,681.4576,-4352.692,0
0.01656797,-8545.116,956.216,-6011.585,-6884.71,662.2395,-4333.578,0
0.01656973,-8461.178,978.1614,-5982.635,-6815.918,680.4729,-4315.44,0
0.01656955,-8489.452,955.5643,-6034.294,-6842.006,674.0245,-4350.617,0
0.01656966,-8562.547,936.2908,-6054.548,-6880.024,659.0975,-4363.276,0
0.01656966,-8578.06,936.0762,-6057.49,-6896.009,649.9236,-4378.162,0
0.01656764,-8533.458,965.7538,-6021.116,-6879.365,671.6058,-4340.575,0
0.01657294,-8479.559,966.8572,-6005.68,-6820.339,706.2462,-4335.486,0
0.01656973,-8446.661,976.689,-6022.922,-6799.766,707.587,-4322.146,0
0.01656863,-8530.833,980.9468,-6032.723,-6868.658,673.9154,-4365.979,0
0.01656879,-8500.345,981.7401,-6014.158,-6836.378,688.9112,-4356.459,0
0.01656301,-8457.911,985.4196,-6006.88,-6803.995,716.8771,-4328.48,0
0.01656866,-8480.931,1010.039,-6016.568,-6826.167,708.1405,-4339.84,0
0.0165684,-8513.473,964.437,-6029.731,-6851.06,675.9696,-4359.336,0
0.0165684,-8555.714,924.3491,-6066.769,-6883.225,643.2057,-4398.089,0
0.01657069,-8603.362,926.0656,-6092.902,-6932.658,643.3355,-4422.818,0
0.01656974,-8482.354,952.9412,-6108.205,-6822.148,659.8742,-4432.268,0
0.01656974,-8529.705,949.0565,-6115.106,-6849.561,663.3438,-4407.311,0
0.01657214,-8514.09,932.9423,-6065.833,-6846.459,649.1631,-4385.523,0
0.01657214,-8471.835,960.9824,-6063.488,-6809.774,667.0844,-4389.212,0
0.01657103,-8440.604,969.1715,-6019.725,-6799.401,686.6346,-4347.719,0
0.01657077,-8501.603,1017.316,-6024.654,-6850.637,732.7441,-4346.077,0
0.01656688,-8452.18,1001.392,-6023.518,-6795.159,716.1795,-4344.216,0
0.01657092,-8500.757,986.3267,-5976.787,-6841.306,712.0006,-4305.606,0
0.01657092,-8524.988,1001.855,-5989.619,-6859.778,710.1844,-4329.531,0
0.01658191,-8450.387,1016.958,-6014.766,-6807.15,708.0253,-4350.558,0
0.01656916,-8423.568,1005.195,-6043.106,-6773.56,704.4545,-4378.335,0
0.01656962,-8419.201,1002.372,-6055.432,-6774.945,701.9383,-4370.497,0
0.01657065,-8401.707,1000.378,-6072.613,-6770.716,694.814,-4384.643,0
0.01657158,-8397.659,1022.58,-6062.251,-6759.044,711.4476,-4388.783,0
0.01656654,-8412.287,988.6646,-6049.797,-6774.927,680.1805,-4381.383,0
0.01657037,-8542.074,945.931,-6006.408,-6869.752,653.692,-4332.146,0
0.01657037,-8513.532,979.018,-5999.889,-6847.645,679.6855,-4320.954,0
0.0165687,-8489.772,969.0479,-5997.045,-6824.902,677.3726,-4332.253,0
0.01656977,-8451.251,1008.327,-6006.951,-6804.305,712.6752,-4325.55,0
0.01656977,-8469.905,1009.761,-6034.068,-6823.054,707.2892,-4356.891,0
0.01657077,-8499.758,986.7095,-6019.268,-6841.398,677.6948,-4353.048,0
0.01656839,-8479.341,975.1646,-6008.591,-6821.267,714.0605,-4365.688,0
0.01657009,-8503.793,975.2872,-5999.449,-6835.487,701.9426,-4287.822,0
0.01657009,-8556.676,982.6299,-5963.307,-6880.189,662.1313,-4312.504,0
0.01656604,-8548.492,943.366,-6021.195,-6873.644,649.1317,-4354.956,0
0.01656791,-8535.479,967.9461,-6001.594,-6859.045,702.4175,-4361.006,0
0.01656936,-8489.802,1005.413,-6035.024,-6824.032,705.804,-4349.685,0
0.01656936,-8566.063,984.6405,-6049.567,-6886.718,685.6979,-4374.03,0
0.03314619,-8611.567,972.5726,-6072.501,-6925.62,673.7204,-4386.698,0
0.03314619,-8565.58,993.3712,-6037.686,-6890.099,693.2524,-4368.515,0
0.01657149,-8529.312,1014.933,-6033.673,-6862.218,703.026,-4354.594,0
0.01657044,-8565.531,992.3983,-6018.57,-6880.967,701.2323,-4323.114,0
0.01656665,-8515.476,985.4446,-6000.103,-6851.47,697.8242,-4307.448,1
0.01657795,-8479.636,1003.87,-6031.478,-6815.289,713.8152,-4358.142,1
0.01656871,-8487.584,989.4362,-6023.723,-6821.547,712.4048,-4344.15,1
0.01657135,-8551.237,969.4783,-6041.825,-6883.567,700.1741,-4355.21,1
0.01657135,-8478.925,974.548,-6002.603,-6819.357,687.1815,-4338.235,1
0.01657002,-8540.714,972.4035,-5996.33,-6871.117,698.3307,-4321.612,1
0.0165698,-8548.112,954.3754,-6004.774,-6872.232,676.8358,-4325.959,1
0.01657174,-8503.432,972.3701,-5977.165,-6846.881,672.6749,-4317.977,1
0.01657269,-8593.751,933.803,-5964.56,-6911.448,654.1019,-4294.099,1
0.01656968,-8559.801,972.9485,-5979.731,-6876.383,681.9481,-4315.859,1
0.01657097,-8507.36,971.0234,-6013.122,-6836.249,671.9094,-4344.499,1
0.01656981,-8513.301,939.0087,-6025.038,-6845.321,639.2044,-4373.494,1
0.01656877,-8481.54,944.0657,-6036.027,-6825.572,629.6718,-4400.035,1
0.01666909,-8502.046,936.9457,-6111.533,-6836.96,605.8504,-4574.624,1
0.01666909,-8519.713,959.9271,-6180.193,-6859.389,569.8834,-4721.025,1
0.01656973,-8585.612,901.6097,-6266.733,-6896.381,551.6296,-4641.947,1
0.01656786,-8625.872,855.8958,-6213.98,-6926.875,512.9484,-4647.201,1
0.01657057,-8683.178,874.4548,-6142.937,-6970.253,522.6411,-4493.858,1
0.01656629,-8695.874,900.0193,-6019.754,-6983.832,631.1743,-4419.832,1
0.01657057,-8659.169,959.9166,-6029.789,-6946.409,679.4422,-4393.66,1
0.01657066,-8574.783,1008.863,-6049.892,-6886.104,654.0267,-4390.973,1
0.01657116,-8544.146,1027.951,-5981.559,-6867.176,682.5078,-4351.736,1
0.01657116,-8543.086,1047.231,-5924.24,-6857.636,746.7821,-4311.702,1
0.01657028,-8501.587,1080.463,-5958.437,-6830.531,730.4352,-4317.044,1
0.01656757,-8503.28,1056.41,-5938.599,-6827.666,712.7502,-4315.337,1
0.01656757,-8616.56,1051.418,-5928.873,-6918.813,744.6486,-4307.502,1
0.01657063,-8586.411,1061.098,-5905.585,-6900.008,737.5886,-4280.444,1
0.01657415,-8594.068,1083.076,-5827.767,-6905.759,749.3631,-4241.739,1
0.01657216,-8619.401,1074.012,-5847.591,-6920.553,772.2972,-4232.346,1
0.01657216,-8592.865,1134.427,-5864.281,-6895.678,804.7883,-4222.959,1
0.01657102,-8645.769,1094.527,-5856.521,-6944.868,782.6987,-4251.052,1
0.01657756,-8688.685,1088.365,-5887.322,-6968.493,807.3207,-4268.875,1
0.01656558,-8649.866,1131.254,-5891.269,-6942.908,838.0801,-4268.266,1
0.01656933,-8673.265,1115.565,-5878.85,-6969.425,797.9664,-4239.62,1
0.01666549,-8600.205,1133.306,-5851.682,-6908.935,813.7299,-4242.156,1
0.0165694,-8593.801,1105.161,-5849.519,-6899.646,773.3761,-4225.581,1
0.01657048,-8654.33,1101.819,-5831.623,-6945.911,735.5216,-4211.407,1
0.01656835,-8689.567,1040.682,-5852.161,-6972.631,738.127,-4215.803,1
0.01656917,-8632.171,1094.852,-5792.659,-6924.096,740.5274,-4170.921,1
0.01657001,-8589.437,1103.305,-5787.582,-6895.876,726.7335,-4142.58,1
0.01657001,-8549.131,1079.436,-5751.991,-6860.806,723.4556,-4118.665,1
0.01657011,-8587.931,1035.986,-5800.742,-6895.132,710.2762,-4163.084,1
0.01657154,-8555.594,1062.625,-5838.391,-6870.536,728.8341,-4203.475,1
0.01657165,-8518.142,1084.639,-5861.663,-6842.15,743.1926,-4232.134,1
0.01656961,-8507.827,1150.984,-5828.185,-6843.462,745.0551,-4154.76,1
0.01656961,-8585.596,1086.862,-5744.8,-6889.838,776.2476,-4157.797,1
0.01657032,-8658.776,1152.745,-5820.626,-6950.135,801.519,-4206.348,1
0.01657032,-8653.684,1200.603,-5906.603,-6950.393,726.7138,-4272.031,1
0.01656936,-8618.173,1082.203,-5896.778,-6931.904,714.8087,-4227.971,1
0.01656683,-8605.017,1078.748,-5813.052,-6908.467,774.3239,-4193.288,1
0.01656683,-8671.253,1151.989,-5826.524,-6954.585,736.043,-4215.342,1
0.01656982,-8698.544,1136.983,-5855.646,-6984.027,742.7775,-4181.673,1
0.01656982,-8681.944,1103.299,-5829.923,-6966.575,767.1301,-4177.88,1
0.01657549,-8682.732,1164,-5858.156,-6966.94,795.6991,-4205.635,1
0.01656911,-8699.401,1174.555,-5846.15,-6979.451,785.5258,-4193.957,1
0.01657089,-8688.771,1178.736,-5798.469,-6971.082,833.934,-4147.622,1
0.01657089,-8694.354,1217.701,-5797.579,-6975.158,832.6367,-4142.467,1
0.01656935,-8720.541,1208.587,-5742.908,-6999.393,849.9822,-4139.454,1
0.01657453,-8616.946,1255.863,-5788.575,-6915.609,941.962,-4167.708,1
0.01656952,-8548.534,1295.746,-5825.852,-6872.413,971.2528,-4210.412,1
0.01656967,-8610.03,1284.215,-5839.65,-6910.877,950.9656,-4192.356,1
0.01657263,-8579.796,1306.882,-5792.542,-6887.927,967.7276,-4155.522,1
0.01656781,-8610.102,1320.224,-5825.419,-6911.288,939.6787,-4204.578,1
0.0165685,-8604.817,1293.816,-5866.249,-6902.912,887.2009,-4215.196,1
0.016574,-8557.53,1292.146,-5852.056,-6875.787,899.2501,-4183.988,1
0.016574,-8532.602,1280.066,-5854.705,-6861.447,878.9847,-4198.986,1
0.0165705,-8547.435,1256.64,-5845.062,-6873.084,875.6353,-4183.795,1
0.01657157,-8586.492,1231.842,-5810.153,-6889.826,882.3898,-4154.644,1
0.01657157,-8616.012,1212.613,-5842.25,-6908.007,848.5743,-4197.828,1
0.01657134,-8612.173,1210.082,-5855.321,-6913.905,839.5333,-4179.783,1
0.01656982,-8656.533,1166.715,-5794.943,-6947.732,821.2168,-4214.533,1
0.01655876,-8612.43,1228.263,-5855.915,-6909.435,857.6255,-4227.861,1
0.01655876,-8569.813,1261.672,-5877.049,-6876.904,772.6153,-4282.072,1
0.01658363,-8606.006,1180.082,-5950.377,-6909.126,748.1145,-4230.85,1
0.01657115,-8600.765,1178.287,-5896.437,-6905.123,823.788,-4276.893,1
0.01657115,-8598.824,1251.873,-5904.833,-6908.09,807.2466,-4276.121,1
0.01656856,-8637.668,1243.633,-5923.922,-6937.753,834.462,-4240.874,1
0.01657097,-8595.982,1228.97,-5867.94,-6901.365,845.9312,-4234.242,1
0.01657097,-8608.052,1228.85,-5856.187,-6919.487,805.9199,-4173.177,1
0.0165794,-8545.464,1242.585,-5769.694,-6867.258,853.0179,-4134.157,1
0.01656988,-8589.907,1240.892,-5775.685,-6901.411,900.9388,-4142.724,1
0.0165696,-8529.684,1348.295,-5820.247,-6851.042,920.9815,-4149.086,1
0.0165696,-8595.537,1304.47,-5800.933,-6897.148,923.3772,-4197.11,1
0.01657422,-8524.487,1334.791,-5893.191,-6838.481,992.7519,-4249.344,1
0.01656689,-8571.812,1392.936,-5836.561,-6888.178,1064.067,-4203.669,1
0.01625516,-8579.994,1414.657,-5890.228,-6894.462,1062.206,-4227.756,1
0.01656808,-8640.198,1394.786,-5901.861,-6940.42,1051.343,-4227.065,1
0.01656887,-8652.99,1388.112,-5856.851,-6954.387,982.0095,-4231.043,1
0.01656887,-8590.292,1364.604,-5849.866,-6906.266,953.2287,-4168.88,1
0.01656827,-8530.189,1336.854,-5780.222,-6842.67,944.8992,-4146.011,1
0.01656887,-8486.218,1319.325,-5809.547,-6818.246,923.6956,-4167.579,1
0.01656887,-8557.666,1286.497,-5850.591,-6864.314,886.4749,-4203.489,1
0.01657189,-8555.378,1259.289,-5888.021,-6875.958,886.9288,-4232.857,1
0.01656536,-8539.991,1293.095,-5870.441,-6859.848,899.6513,-4169.41,1
0.01656758,-8533.328,1295.176,-5799.728,-6854.888,924.0382,-4206.02,1
0.01656758,-8569.559,1314.977,-5842.254,-6878.25,926.4333,-4211.981,1
0.01656819,-8517.648,1361.092,-5873.38,-6843.053,922.8309,-4261.194,1
0.01657039,-8598.35,1330.516,-5959.596,-6909.268,897.7137,-4295.233,1
0.01657039,-8543.644,1314.626,-5903.22,-6867.354,951.5166,-4262.289,1
0.01657153,-8564.801,1318.082,-5905.482,-6879.144,900.6316,-4295.116,1
0.01657087,-8498.489,1312.399,-5924.811,-6828.519,916.0009,-4251.734,1
0.01657058,-8571.875,1304.244,-5929.08,-6880.352,910.069,-4264.24,1
0.01656688,-8530.64,1338.523,-5948.427,-6853.255,927.9711,-4293.222,1
0.0165714,-8567.606,1313.38,-5892.782,-6881.575,914.5225,-4253.243,1
0.01657049,-8536.062,1344.091,-5933.032,-6857.446,958.201,-4267.036,1
0.01657091,-8488.864,1369.626,-5913.525,-6825.926,982.5309,-4218.209,1
0.01657091,-8531.449,1399.08,-5865.08,-6840.946,970.9865,-4239.962,1
0.01657216,-8510.918,1377.79,-5910.613,-6829.793,1011.261,-4237.124,1
0.01656908,-8496.995,1428.284,-5899.548,-6828.176,1066.153,-4255.514,1
0.01656908,-8510.333,1460.956,-5933.525,-6838.521,1083.976,-4236.541,1
0.01657044,-8525.002,1459.643,-5859.105,-6849.813,1097.679,-4179.391,1
0.01657033,-8478.288,1472.931,-5833.309,-6814.185,1076.028,-4206.73,1
0.01656901,-8442.361,1490.246,-5828.97,-6782.535,1035.647,-4186.997,1
0.01657279,-8424.015,1436.827,-5857.305,-6773.291,1034.705,-4204.975,1
0.01657002,-8515.905,1421.52,-5861.208,-6843.786,1014.538,-4207.779,1
0.01657269,-8542.148,1393.811,-5880.055,-6868.211,989.1559,-4227.227,1
0.01657269,-8590.609,1375.533,-5879.42,-6891.764,969.4348,-4224.234,1
0.01657114,-8546.306,1336.193,-5833.918,-6857.663,958.9169,-4169.002,1
0.01656859,-8556.664,1348.311,-5811.795,-6874.349,952.0447,-4187.227,1
0.01656859,-8564.868,1342.136,-5811.558,-6876.047,924.2516,-4191.952,1
0.01657087,-8579.314,1343.265,-5854.125,-6886.934,901.2581,-4235.966,1
0.01656965,-8576.382,1305.997,-5947.605,-6880.084,871.6887,-4274.323,1
0.01657166,-8501.198,1297.052,-5897.982,-6831.419,936.4167,-4253.296,1
0.01657025,-8451.902,1380.073,-5901.682,-6793.936,946.549,-4300.298,1
0.01656965,-8502.192,1357.91,-5937.425,-6828.208,935.4388,-4258.389,1
0.01656984,-8460.964,1351.686,-5935.047,-6796.838,959.5544,-4269.679,1
0.01656984,-8453.822,1379.031,-5895.856,-6791.633,973.2421,-4258.408,1
0.01656939,-8430.157,1387.217,-5930.367,-6769.385,971.6614,-4264.197,1
0.01657254,-8479.93,1374.844,-5916.927,-6812.128,968.2294,-4241.335,1
0.01657254,-8550.412,1372.176,-5861.71,-6861.582,996.6201,-4181.972,1
0.01656924,-8549.309,1391.602,-5841.958,-6869.417,942.9497,-4243.266,1
0.01657179,-8577.273,1341.642,-5900.066,-6890.582,964.6331,-4232.323,1
0.01657229,-8504.571,1385.998,-5922.688,-6825.958,1014.055,-4281.978,1
0.01657229,-8419.703,1438.077,-5941.691,-6770.098,1089.103,-4276.646,1
0.0165676,-8484.769,1464.079,-5917.474,-6806.83,1079.453,-4161.875,1
0.01656389,-8483.089,1486.172,-5794.298,-6814.509,1085.387,-4165.761,1
0.01656389,-8576.565,1483.622,-5889.625,-6894.8,1057.539,-4237.8,1
0.03314772,-8582.324,1437.601,-5888.263,-6885.591,1067.522,-4223.167,1
0.01656817,-8590.497,1436.17,-5869.319,-6895.992,1059.306,-4220.353,1
0.01656938,-8557.176,1444.115,-5953.637,-6865.845,1030.595,-4285.605,1
0.01656938,-8495.201,1420.926,-5950.138,-6831.721,1036.343,-4288.202,1
0.01656936,-8462.54,1420.847,-5967.381,-6793.604,1005.772,-4324.664,1
0.0165697,-8470.178,1417.408,-5965.037,-6799.685,1013.699,-4251.088,1
0.01656905,-8492.765,1399.122,-5880.87,-6821.551,990.0614,-4244.321,1
0.01656905,-8475.246,1415.475,-5894.607,-6803.824,950.8587,-4247.132,1
0.01657009,-8533.833,1328.007,-5945.541,-6848.69,880.3615,-4304.327,1
0.01656991,-8586.918,1301.116,-5981.364,-6897.977,874.9881,-4306.818,1
0.01657342,-8586.665,1293.092,-5990.748,-6884.183,902.5883,-4355.261,1
0.0165692,-8548.149,1353.415,-6018.593,-6858.971,914.6857,-4365.628,1
0.01657048,-8485.558,1350.699,-6001.729,-6815.545,922.5023,-4300.006,1
0.01656679,-8547.746,1334.701,-5964.586,-6867.606,920.9775,-4289.476,1
0.01657079,-8576.419,1340.374,-5950.924,-6884.955,894.1946,-4291.176,1
0.01657396,-8514.167,1340.03,-5941.12,-6846.104,902.1749,-4264.279,1
0.01657116,-8483.359,1347.429,-5960.467,-6804.91,921.2874,-4266.919,1
0.01657116,-8429.871,1398.72,-5924.828,-6773.142,949.1779,-4238.335,1
0.01657101,-8452.457,1395.612,-5958.483,-6781.881,956.4107,-4355.009,1
0.01643166,-8488.222,1381.117,-6028.771,-6809.436,997.0485,-4299.337,1
0.01657633,-8448.485,1420.948,-5979.277,-6783.626,1053.625,-4287.661,1
0.01657633,-8402.371,1466.129,-5978.035,-6744.216,1098.302,-4275.582,1
0.01656708,-8436.854,1459.934,-5941.072,-6766.491,1090.031,-4225.747,1
0.01657112,-8470.76,1491.941,-5930.793,-6801.454,1078.604,-4261.28,1
0.01657091,-8477.639,1491.622,-5924.87,-6806.75,1026.718,-4218.913,1
0.01657091,-8471.738,1429.476,-5925.87,-6811.123,1012.269,-4251.444,1
0.01656863,-8482.857,1463.774,-5928.726,-6815.194,1025.1,-4259.815,1
0.01657025,-8482.632,1481.194,-5914.155,-6815.002,1016.644,-4241.554,1
0.01657025,-8506.839,1406.982,-5929.111,-6833.465,979.2304,-4247.836,1
0.01656811,-8425.591,1448.238,-5974.982,-6780.202,1017.197,-4291.505,1
0.01657001,-8453.7,1467.255,-5981.689,-6792.992,1034.681,-4323.077,1
0.01657001,-8387.146,1474.945,-5976.844,-6733.414,1041.786,-4278.463,1
0.01656823,-8343.008,1420.388,-5945.93,-6713.368,985.8516,-4266.425,1
0.01657065,-8346.97,1441.911,-5956.683,-6699.12,846.45,-4283.246,1
0.01657065,-8349.807,1367.669,-6001.652,-6706.143,773.2358,-4323.629,1
0.01638506,-8435.325,1310.065,-6037.882,-6780.643,843.4493,-4296.785,1
0.01668157,-8444.704,1348.879,-5960.605,-6783.342,912.1025,-4229.833,1
0.01657006,-8365.848,1474.812,-5948.248,-6723.098,995.726,-4224.127,1
0.01657006,-8374.272,1477.654,-5940.716,-6725.354,1053.596,-4222.683,1
0.01656805,-8350.739,1481.71,-5916.51,-6712.028,1073.233,-4207.13,1
0.01657014,-8415.037,1493.034,-5925.886,-6765.802,1071.816,-4257.438,1
0.01657154,-8425.17,1532.568,-5950.076,-6764.652,1117.431,-4275.693,1
0.01657154,-8457.482,1527.088,-5973.99,-6793.71,1135.461,-4285.882,1
0.0165694,-8393.146,1552.579,-5931.832,-6744.433,1114.012,-4222.581,1
0.01657119,-8425.309,1539.028,-5926.715,-6769.08,1076.654,-4312.148,1
0.01656898,-8353.302,1526.756,-6048.401,-6714.079,1112.162,-4350.686,1
0.01656898,-8335.816,1581.33,-6086.345,-6696.544,1159.896,-4408.326,1
0.01657118,-8406.894,1575.271,-6062.302,-6764.385,1182.76,-4389.683,1
0.01657074,-8391.22,1601.143,-6036.51,-6743.517,1209.794,-4316.129,1
0.01656942,-8451.726,1576.964,-6015.481,-6789.745,1158.954,-4332.331,1
0.01656815,-8437.065,1560.971,-6029.97,-6778.362,1080.243,-4335.51,1
0.01657141,-8449.275,1510.602,-6038.893,-6787.566,1082.44,-4343.833,1
0.01595648,-8479.428,1524.515,-6032.899,-6810.432,1111.104,-4335.764,1
0.01656961,-8440.175,1533.109,-6029.915,-6775.79,1087.697,-4346.658,1
0.01656977,-8380.351,1516.277,-6007.104,-6738.926,1100.867,-4297.546,1
0.01656978,-8367.798,1516.383,-6019.399,-6720.637,1076.844,-4332.457,1
0.0165733,-8326.316,1500.253,-6025.014,-6693.61,1090.058,-4326.986,1
0.0165733,-8348.07,1508.204,-6025.196,-6719.41,1057.677,-4372.489,1
0.01657537,-8356.951,1512.316,-6110.834,-6713.087,1076.145,-4399.209,1
0.01647835,-8331.237,1508.77,-6037.839,-6684.764,1094.799,-4307.109,1
0.01647835,-8284.354,1520.836,-5942.973,-6666.968,1072.435,-4269.893,1
0.01654762,-8235.677,1533.646,-6047.737,-6625.757,1037.647,-4383.125,1
0.01657197,-8360.886,1486.036,-6048.923,-6721.864,1030.18,-4364.718,1
0.01657087,-8425.604,1455.031,-6064.589,-6766.827,1029.126,-4385.951,1
0.01657087,-8438.726,1442.281,-6080.627,-6776.599,1035.687,-4430.389,1
0.01657071,-8461.435,1465.26,-6114.316,-6798.097,1024.641,-4423.936,1
0.01657075,-8474.218,1443.687,-6091.289,-6803.089,1024.13,-4378.046,1
0.03313991,-8417.862,1483.387,-6065.96,-6764.167,1043.831,-4382.377,1
0.01657423,-8387.96,1495.199,-6081.365,-6741.248,1069.513,-4385.458,1
0.01656537,-8416.973,1500.421,-6023.774,-6763.425,1071.243,-4336.115,1
0.01656537,-8398.416,1499.477,-6044.837,-6744.746,1073.519,-4346.501,1
0.01657636,-8367.504,1511.139,-6045.081,-6716.726,1089.574,-4353.376,1
0.01657242,-8391.611,1504.49,-6055.908,-6739.693,1079.687,-4372.742,1
0.01656973,-8429.156,1483.566,-6074.01,-6772.801,1085.539,-4383.743,1
0.01657082,-8477.624,1507.968,-6111.126,-6800.797,1103.869,-4452.405,1
0.01657082,-8481.03,1522.995,-6119.043,-6811.97,1175.606,-4415.472,1
0.01657074,-8382.929,1579.832,-6073.909,-6732.367,1206.791,-4378.027,1
0.01657074,-8380.826,1632.037,-6041.892,-6735.321,1158.121,-4377.107,1
0.01657108,-8345.542,1557.788,-6039.027,-6704.068,1101.873,-4332.599,1
0.03315327,-8372.829,1504.669,-6068.253,-6720.711,1081.746,-4358.383,1
0.01657269,-8329.205,1502.648,-6032.622,-6687.535,1066.724,-4356.126,1
0.01657015,-8346.191,1461.36,-6044.288,-6700.777,1041.143,-4346.293,1
0.01656987,-8376.464,1466.411,-6032.414,-6732.928,1038.325,-4322.632,1
0.01656981,-8353.472,1483.318,-5986.762,-6715.403,1044.526,-4306.769,1
0.01657184,-8417.717,1464.956,-5984.868,-6760.121,1057.797,-4310.022,1
0.01657333,-8359.863,1502.961,-6008.656,-6715.823,1068.944,-4323.706,1
0.04972081,-8347.097,1507.084,-6039.21,-6706.177,1077.65,-4359.897,1
0.01656877,-8406.324,1483.827,-6054.702,-6760.386,1089.796,-4369.752,1
0.01657054,-8453.238,1447.719,-6024.495,-6791.64,1027.073,-4340.518,1
0.01657227,-8431.452,1444.246,-6075.284,-6765.866,983.9372,-4387.097,1
0.01657172,-8361.711,1448.1,-6079.759,-6716.917,982.4777,-4431.339,1
0.01657048,-8424.067,1383.014,-6110.042,-6760.209,974.6082,-4402.411,1
0.01638062,-8366.253,1433.905,-6077.684,-6715.963,1027.974,-4448.108,1
0.01657054,-8387.89,1504.81,-6067.005,-6732.597,1052.035,-4420.335,1
0.01657054,-8408.404,1466.637,-6099.89,-6748.278,1025.019,-4385.214,1
0.01648027,-8464.661,1442.69,-6085.076,-6791.161,1021.754,-4404.269,1
0.01657475,-8462.871,1438.092,-6057.46,-6785.096,1020.293,-4378.102,1
0.01657418,-8439.16,1452.6,-6059.608,-6775.638,1041.726,-4365.089,1
0.01656976,-8358.669,1491.19,-6029.755,-6714.072,1072.311,-4337.918,1
0.01666174,-8413.654,1476.803,-5991.401,-6751.808,1067.567,-4291.083,1
0.01656809,-8370.514,1493.03,-6011.286,-6718.852,1038.058,-4355.34,0
0.01657505,-8344.321,1481.474,-6041.773,-6703.432,1072.682,-4330.812,0
0.01656979,-8321.666,1505.679,-6046.352,-6690.787,1101.319,-4379.541,0
0.01657383,-8283.467,1551.776,-6074.761,-6666.329,1163.455,-4405.619,0
0.01657383,-8258.49,1557.932,-6052.47,-6638.778,1189.348,-4362.418,0
0.0165718,-8320.957,1592.807,-6032.694,-6691.341,1180.361,-4355.916,0
0.01657003,-8302.651,1603.182,-6041.076,-6677.519,1113.616,-4356.839,0
0.0165688,-8304.47,1537.393,-6059.547,-6674.681,1095.258,-4344.387,0
0.01657146,-8395.548,1477.856,-6019.017,-6744.388,1069.973,-4322.058,0
0.0165732,-8440.973,1461.959,-6048.612,-6783.308,1034.707,-4373.883,0
0.01657266,-8427.201,1454.032,-6042.831,-6772.448,1048.274,-4352.813,0
0.01657079,-8458.494,1444.684,-6064.388,-6796.078,1015.573,-4362.645,0
0.01657197,-8496.16,1455.375,-6056.357,-6815.618,1034.245,-4348.436,0
0.01657112,-8427.576,1473.177,-6063.21,-6762.833,1039.42,-4365.86,0
0.01656488,-8362.656,1507.159,-6096.442,-6713.155,1068.232,-4378.716,0
0.01656488,-8387.91,1490.4,-6076.226,-6732.57,1083.921,-4385.3,0
0.0165726,-8397.267,1482.431,-6109.966,-6730.876,1080.292,-4415.941,0
0.01656887,-8436.966,1477.426,-6107.708,-6774.482,1077.015,-4397.927,0
0.0165711,-8460.199,1462.74,-6064.944,-6796.472,1047.258,-4363.188,0
0.01657077,-8447.965,1445.607,-6005.14,-6773.585,1010.468,-4333.906,0
0.01657077,-8425.851,1463.083,-6038.339,-6760.987,988.5716,-4404.054,0
0.01656992,-8436.083,1394.464,-6074.291,-6768.739,967.1371,-4378.842,0
0.01657369,-8498.42,1401.712,-6043.854,-6811.8,982.7363,-4398.21,0
0.01657265,-8383.726,1443.866,-6080.816,-6737.235,1007.165,-4444.956,0
0.01657411,-8337.852,1482.626,-6103.099,-6702.352,1041.014,-4390.03,0
0.01656109,-8357.981,1488.539,-6076.44,-6718.013,1058.482,-4396.716,0
0.01656109,-8339.15,1470.783,-6011.711,-6699.393,1038.175,-4343.654,0
0.016574,-8412.671,1472.946,-6004.538,-6751.328,1050.339,-4305.984,0
0.0166648,-8394.776,1464.49,-6014.769,-6737.616,1069.598,-4319.619,0
0.0166648,-8441.906,1468.092,-6014.346,-6773.614,1098.595,-4293.742,0
