Time,Ax,Ay,Az,Gx,Gy,Gz
0.0165593,-218,0,0,0,0,0,0
0.215322,-13356,2924,-10520,-2880,333,-507,0
0.215322,-13052,2900,-10568,-2864,-125,605,0
0.1490772,-13276,2924,-10328,-2848,284,766,0
0.1490772,-12788,2852,-10128,-2864,-62,396,0
0.1490772,-12852,3060,-10552,-2848,-378,478,0
0.1490772,-12984,3220,-10172,-2880,-292,436,0
0.1490772,-12896,3064,-10120,-2864,123,88,0
0.1490772,-12792,3172,-10272,-2880,-264,274,0
0.1490772,-12716,3360,-10320,-2880,-336,200,0
0.1490772,-12968,3380,-10344,-2864,-162,147,0
0.1490772,-12944,3268,-10492,-2864,-19,257,0
0.1490772,-12716,3260,-10292,-2896,199,468,0
0.1490772,-12880,3216,-10412,-2880,24,-31,0
0.1490772,-12796,3412,-10380,-2880,-102,335,0
0.1490643,-12828,3320,-10556,-2864,-594,91,0
0.03312007,-12568,3508,-10628,-2864,-734,352,0
0.03312007,-12868,3564,-11076,-2880,174,-45,0
0.03312007,-12988,3752,-10860,-2864,1223,371,0
0.03312007,-13272,3856,-10064,-2864,592,328,0
0.04969875,-12988,3784,-10104,-2832,-489,617,0
0.01656401,-12576,3680,-10436,-2848,-125,321,0
0.01656401,-12456,3632,-10144,-2864,8,610,0
0.01630302,-12748,3392,-9800,-2864,497,-70,0
0.01630302,-12736,3380,-10720,-2864,-341,-224,0
0.0165623,-12872,3520,-10644,-2864,-534,555,0
0.01656171,-12836,3572,-10404,-2848,-100,886,0
0.01656179,-12500,3544,-10232,-2848,-401,-227,0
0.01656159,-12564,3192,-10544,-2848,-203,-389,0
0.01656326,-12584,2952,-10240,-2864,-145,-2,0
0.01656139,-12680,3112,-10312,-2880,-517,95,0
0.01656139,-12604,3476,-10484,-2880,-939,-506,0
0.01656336,-12852,3616,-10572,-2848,61,-1,0
0.01656384,-12900,3684,-10748,-2848,-93,-262,0
0.01656202,-12940,3608,-10432,-2880,349,539,0
0.01656738,-12836,3472,-10260,-2864,-143,1,0
0.01655924,-12788,3464,-10580,-2880,-106,273,0
0.01656339,-12908,3364,-10308,-2864,180,302,0
0.01656339,-12892,3384,-10360,-2832,-83,233,0
0.01656524,-12760,3464,-10556,-2864,-181,75,0
0.01657137,-12760,3416,-10392,-2864,175,393,0
0.01657137,-12796,3292,-10372,-2832,140,161,0
0.01656055,-12816,3316,-10308,-2880,24,189,0
0.01656055,-12704,3196,-10476,-2880,-145,202,0
0.01657098,-12728,3392,-10332,-2848,-17,273,0
0.01657098,-12628,3316,-10368,-2880,-127,111,0
0.01656385,-12872,3272,-10420,-2864,-62,130,0
0.01656385,-12868,3288,-10344,-2848,-55,153,0
0.03312334,-12900,3380,-10304,-2816,-53,224,0
0.03312334,-12808,3276,-10524,-2848,-35,309,0
0.01666238,-12760,3380,-10472,-2864,-99,204,0
0.01657982,-12808,3188,-10380,-2864,-53,264,0
0.01657982,-12852,3132,-10452,-2864,-162,387,0
0.01668842,-12936,3252,-10528,-2864,-282,323,0
0.01656181,-12736,3356,-10432,-2816,-311,594,0
0.01656181,-12752,3292,-10552,-2864,263,194,0
0.01658045,-12692,3164,-10624,-2848,257,255,0
0.01658536,-12700,3088,-10340,-2848,-123,305,0
0.01657923,-12820,3068,-10468,-2864,-37,206,0
0.01657923,-12884,3176,-10616,-2864,-4,390,0
0.01603563,-12828,3388,-10496,-2848,-36,450,0
0.01658123,-12728,3260,-10568,-2832,418,653,0
0.01658071,-12644,3288,-10568,-2864,753,776,0
0.01658071,-12656,3164,-10784,-2848,539,513,0
0.01657734,-12740,3092,-10624,-2864,77,709,0
0.01657734,-12648,3156,-10808,-2848,140,765,0
0.01658195,-12528,3128,-10640,-2832,-69,542,0
0.01658053,-12628,3220,-10696,-2848,-15,592,0
0.01658174,-12604,3212,-10724,-2832,47,167,0
0.01658174,-12512,3160,-10916,-2864,-92,112,0
0.01657743,-12468,2860,-10908,-2864,197,144,0
0.01657998,-12212,2784,-10800,-2848,110,-396,0
0.01605304,-12592,2348,-10524,-2832,-185,-558,0
0.01657941,-13156,2448,-10596,-2832,-969,-133,0
0.01657899,-12968,2860,-10704,-2832,-989,-112,0
0.01657879,-12972,3360,-10828,-2848,335,144,0
0.01657058,-12620,3408,-10668,-2832,235,-173,0
0.01657058,-12516,3132,-10624,-2832,481,-372,0
0.01656828,-12748,2680,-10748,-2848,549,-277,0
0.01656828,-12868,2260,-10768,-2864,-18,161,0
0.03314582,-13168,2296,-10648,-2864,-233,134,0
0.03314582,-13088,2804,-10376,-2832,-289,433,0
0.01657128,-12696,2856,-10700,-2816,304,26,0
0.01657013,-12576,2484,-10424,-2848,610,-161,0
0.01657013,-12764,2508,-10500,-2832,280,350,0
0.03314495,-12812,2440,-10604,-2816,317,137,0
0.01657012,-12876,2408,-10640,-2848,163,-369,0
0.01657497,-12760,2448,-10500,-2800,-408,42,0
0.01657471,-12892,2540,-10432,-2848,125,102,0
0.01656701,-12948,2372,-10708,-2832,-147,-156,0
0.01657241,-12848,2308,-10596,-2848,-279,-21,0
0.0165728,-12952,2316,-10596,-2864,-83,179,0
0.0165728,-12940,2320,-10508,-2848,-210,365,0
0.01656947,-13080,2484,-10384,-2832,18,165,0
0.01656947,-12872,2696,-10536,-2832,178,377,0
0.01657232,-12896,2556,-10432,-2832,220,561,0
0.01657368,-12944,2608,-10700,-2832,170,586,0
0.01657209,-12820,2560,-10696,-2864,1,657,0
0.01656891,-12796,2456,-10576,-2816,-377,853,0
0.0331465,-12600,2628,-10740,-2848,-798,782,0
0.01657045,-12696,2748,-10656,-2832,-645,624,0
0.01657045,-12564,2768,-10856,-2800,-528,456,0
0.01657004,-12580,2784,-10700,-2816,-650,363,0
0.01657004,-12636,2760,-10700,-2832,-424,228,0
0.01656965,-12640,2728,-10764,-2800,-305,144,0
0.01657155,-12856,2776,-10528,-2864,-588,-102,0
0.01656931,-12612,2916,-10820,-2832,-697,-217,0
0.01656968,-12604,3048,-10680,-2848,-439,-278,0
0.01657105,-12504,3120,-10832,-2832,-381,-204,0
0.0165743,-12812,2952,-10700,-2832,-199,-183,0
0.01657022,-12640,2852,-10792,-2832,52,-247,0
0.01657237,-12824,2880,-10608,-2832,19,-119,0
0.01657283,-12884,2928,-10768,-2848,-173,-164,0
0.01657183,-12900,2916,-10668,-2800,-165,-96,0
0.01657183,-12972,2736,-10456,-2800,133,-244,0
0.01657094,-12608,2720,-10524,-2848,85,-249,0
0.01657158,-12828,2864,-10396,-2816,-320,-122,0
0.01657158,-12936,2944,-10604,-2832,-154,-58,0
0.01657115,-13060,2784,-10308,-2816,206,-94,0
0.01657115,-12896,2684,-10476,-2848,-46,18,0
0.01665322,-12824,2820,-10552,-2832,3,-33,0
0.01656997,-12864,2648,-10476,-2832,-158,-118,0
0.01656832,-12908,2792,-10528,-2816,-56,-193,0
0.01656832,-13060,2804,-10516,-2816,-17,-144,0
0.01657151,-13016,2812,-10444,-2800,34,-196,0
0.01670758,-13076,2592,-10324,-2816,51,-234,0
0.01656927,-13108,2584,-10360,-2816,67,-114,0
0.01657166,-13132,2592,-10332,-2816,101,-141,0
0.01656952,-13244,2640,-10388,-2816,70,-31,0
0.01657093,-13268,2636,-10104,-2800,62,184,0
0.01657093,-13048,2624,-10380,-2832,69,155,0
0.01657312,-12888,2580,-10392,-2848,-73,75,0
0.01657102,-12864,2636,-10412,-2816,-109,101,0
0.01657102,-12948,2644,-10264,-2800,-99,59,0
0.01657165,-12972,2648,-10364,-2800,-131,62,0
0.01656203,-13124,2656,-10252,-2816,-106,121,0
0.01610175,-13188,2688,-10196,-2784,-67,107,0
0.01610175,-13188,2496,-10192,-2832,-103,141,0
0.01657055,-12904,2604,-10452,-2832,-123,177,0
0.01657055,-13220,2596,-10140,-2800,-79,216,0
0.01656939,-13016,2704,-10300,-2816,-5,176,0
0.01656908,-12996,2696,-10484,-2800,-78,97,0
0.01656908,-12996,2680,-10136,-2832,-242,241,0
0.01657081,-13036,2628,-10200,-2832,28,125,0
0.01657127,-12980,2520,-10120,-2832,51,160,0
0.01657127,-13096,2672,-10292,-2832,-102,9,0
0.01657192,-13164,2700,-10272,-2816,-355,270,0
0.01657258,-13176,2488,-10352,-2800,-32,61,0
0.01657258,-13108,2568,-10272,-2800,-46,95,0
0.01721217,-12940,2696,-10464,-2816,-164,157,0
0.01657047,-12956,2636,-10408,-2816,-118,169,0
0.01656832,-12984,2628,-10460,-2832,-120,194,0
0.01671809,-13032,2720,-10396,-2816,-64,205,0
0.01657458,-12948,2572,-10444,-2832,-53,165,0
0.01657458,-13092,2608,-10180,-2800,-8,287,0
0.01657211,-13040,2660,-10400,-2800,-42,164,0
0.01657124,-13028,2624,-10352,-2800,19,258,0
0.01657431,-13080,2672,-10368,-2800,54,247,0
0.01657431,-13036,2528,-10344,-2816,4,113,0
0.01656938,-13052,2684,-10288,-2816,60,231,0
0.01657563,-13048,2584,-10360,-2800,56,244,0
0.01657563,-12932,2584,-10248,-2800,-96,168,0
0.01657563,-13056,2660,-10144,-2800,-119,167,0
0.01657563,-12936,2668,-10440,-2800,-91,224,0
0.01657563,-13024,2756,-10360,-2800,-120,240,0
0.01657563,-13120,2612,-10312,-2800,-89,217,0
0.01657563,-12996,2564,-10340,-2816,-16,210,0
0.01657563,-13040,2628,-10504,-2816,-85,235,0
0.01657563,-13016,2592,-10460,-2816,-162,236,0
0.3333333,-12928,2648,-10384,-2784,-89,192,1
0.3333333,-13008,2520,-10160,-2800,108,110,1
0.3333333,-12944,2684,-10448,-2752,-120,97,1
0.3333333,-13096,2632,-10316,-2816,-277,187,1
0.3333333,-13136,2680,-10312,-2800,-162,171,1
0.1324967,-12912,2604,-10276,-2800,64,12,1
0.1324967,-12932,2696,-10440,-2768,-246,58,1
0.1324967,-13016,2552,-10376,-2816,-127,220,1
0.03320841,-13104,2572,-10416,-2800,-67,102,1
0.03323776,-13076,2736,-10348,-2816,-129,92,1
0.01658981,-13176,2568,-10276,-2784,-134,78,1
0.01657987,-13032,2660,-10308,-2816,-49,195,1
0.01657987,-13212,2572,-10280,-2816,-94,44,1
0.0165834,-13144,2768,-10332,-2832,9,160,1
0.01657118,-13056,2648,-10288,-2816,59,132,1
0.01657118,-12992,2636,-10444,-2800,-31,89,1
0.01657079,-13012,2604,-10408,-2800,-51,165,1
0.01657387,-13068,2560,-10252,-2800,-42,204,1
0.01656705,-13116,2704,-10320,-2784,-166,136,1
0.01656955,-12888,2692,-10268,-2816,-89,143,1
0.01656955,-13060,2552,-10408,-2800,-62,224,1
0.01656971,-13016,2748,-10332,-2784,-93,201,1
0.01656971,-13044,2628,-10460,-2784,-91,212,1
0.01676896,-13032,2580,-10412,-2816,-78,257,1
0.01656977,-13016,2596,-10584,-2816,-176,244,1
0.01657034,-13044,2596,-10368,-2784,-22,82,1
0.01657034,-13088,2632,-10384,-2800,18,-3,1
0.01656846,-13028,2632,-10324,-2784,83,225,1
0.01656846,-13116,2524,-10352,-2800,-113,174,1
0.01656978,-13012,2580,-10168,-2768,-260,189,1
0.01657231,-12956,2660,-10224,-2784,82,51,1
0.01657231,-13064,2584,-10428,-2816,-5,72,1
0.01656941,-13116,2576,-10152,-2784,-409,177,1
0.01656941,-13064,2708,-10332,-2768,-220,296,1
0.01657462,-13112,2572,-10088,-2800,25,62,1
0.01657462,-12872,2748,-10472,-2816,-286,199,1
0.01607534,-13052,2808,-10508,-2816,-190,254,1
0.01656593,-12992,2720,-10304,-2800,-68,218,1
0.01657565,-13020,2644,-10244,-2768,-128,189,1
0.01657592,-13088,2684,-10168,-2816,-106,172,1
0.01657162,-12964,2624,-10176,-2784,-40,281,1
0.01657116,-12900,2672,-10220,-2752,-76,238,1
0.01657391,-13020,2788,-10292,-2784,-115,120,1
0.01657391,-13060,2696,-10340,-2752,44,247,1
0.01657244,-13128,2712,-10384,-2784,11,258,1
0.01657029,-12940,2736,-10416,-2784,-7,270,1
0.01657134,-13032,2644,-10376,-2800,-2,369,1
0.01657198,-12924,2680,-10500,-2768,-67,281,1
0.01657056,-12964,2780,-10244,-2800,-157,247,1
0.01657153,-13012,2812,-10200,-2784,-40,324,1
0.0165723,-13000,2812,-10488,-2752,-79,314,1
0.01657644,-13024,2756,-10472,-2768,-173,406,1
0.01657644,-12888,2660,-10552,-2800,-224,285,1
0.01657035,-12872,2676,-10548,-2768,-135,267,1
0.01656991,-12928,2740,-10352,-2784,-30,311,1
0.01657587,-12992,2836,-10588,-2768,-109,223,1
0.01657217,-12872,2768,-10332,-2832,-246,343,1
0.01656841,-12944,2608,-10316,-2768,34,190,1
0.01656841,-12820,2724,-10396,-2768,-33,227,1
0.01657265,-12836,2768,-10440,-2816,-232,124,1
0.01657265,-12980,2760,-10596,-2784,-361,311,1
0.01657188,-12896,2852,-10612,-2736,-128,248,1
0.01657188,-12988,2840,-10480,-2736,-16,158,1
0.01568722,-12820,2936,-10564,-2752,-356,258,1
0.01657091,-12888,2812,-10436,-2784,-122,354,1
0.01657091,-12964,2856,-10640,-2768,-149,331,1
0.01657044,-12928,2808,-10576,-2752,-150,230,1
0.01657251,-12812,2828,-10536,-2768,-71,339,1
0.01656976,-12940,2724,-10352,-2800,28,340,1
0.01657119,-12900,2948,-10396,-2784,-158,195,1
0.01657119,-12864,2808,-10372,-2784,19,229,1
0.01657209,-12844,2748,-10592,-2768,133,187,1
0.01657158,-12804,2756,-10584,-2768,64,356,1
0.01657158,-12796,2784,-10604,-2784,32,330,1
0.01656944,-12884,2728,-10532,-2768,73,267,1
0.01657823,-12760,2832,-10560,-2752,-163,269,1
0.01656946,-12748,2748,-10660,-2768,-158,364,1
0.01666245,-12800,2804,-10656,-2800,-86,265,1
0.01657227,-12836,2892,-10504,-2784,-117,339,1
0.01657227,-12784,2912,-10576,-2784,-87,270,1
0.01657165,-12704,2868,-10676,-2784,-86,223,1
0.01656436,-12776,2880,-10520,-2752,-136,396,1
0.01656921,-12892,2648,-10524,-2752,35,122,1
0.01664137,-12804,2668,-10412,-2784,-119,212,1
0.01657027,-12852,2804,-10604,-2752,-287,190,1
0.01657701,-12840,2792,-10652,-2768,-399,309,1
0.01656992,-12884,2804,-10656,-2768,-94,174,1
0.01657035,-12696,2824,-10532,-2736,-115,240,1
0.01657093,-12756,2880,-10504,-2768,-351,326,1
0.01657063,-12872,2824,-10712,-2784,-104,337,1
0.01657063,-12796,2876,-10556,-2752,-121,280,1
0.01628248,-12808,2904,-10652,-2752,-144,285,1
0.01656832,-12728,2900,-10696,-2784,-85,240,1
0.01657091,-12756,2816,-10540,-2752,-26,362,1
0.01657091,-12628,2952,-10636,-2752,-209,180,1
0.01657093,-12796,2924,-10772,-2768,33,195,1
0.01656997,-12704,2936,-10780,-2768,66,219,1
0.01656997,-12744,2816,-10676,-2768,25,367,1
0.01657189,-12688,2816,-10496,-2736,147,317,1
0.0165608,-12632,2796,-10848,-2784,-19,240,1
0.01656312,-12764,2868,-10720,-2768,-226,256,1
0.01656318,-12772,2856,-10656,-2768,-109,324,1
0.01656318,-12652,2912,-10692,-2752,-107,335,1
0.01655915,-12780,2904,-10864,-2784,-122,356,1
0.01656268,-12720,2972,-10856,-2736,-154,297,1
0.01656025,-12596,2900,-10704,-2736,-154,341,1
0.01656157,-12616,2956,-10544,-2752,-17,365,1
0.01640262,-12748,2852,-10520,-2784,-100,102,1
0.01640262,-12612,3004,-10880,-2768,-279,217,1
0.0165605,-12732,2928,-10660,-2720,-304,346,1
0.01656116,-12684,2944,-10760,-2736,-132,183,1
0.01655863,-12716,2904,-10720,-2752,-37,190,1
0.01655863,-12544,2976,-10708,-2752,-364,266,1
0.01655863,-12684,2960,-10752,-2752,-175,282,1
0.06624094,-12716,2848,-10820,-2736,-121,291,1
0.03311815,-12656,2972,-10772,-2736,-164,262,1
0.01656167,-12728,3048,-10648,-2768,-140,309,1
0.01656187,-12588,2976,-10860,-2752,-20,208,1
0.01655384,-12624,3012,-10788,-2736,-183,219,0
0.01655873,-12592,2916,-10848,-2736,-4,214,0
0.01647036,-12632,3024,-10960,-2736,50,200,0
0.01647036,-12636,3004,-10916,-2736,35,368,0
0.01656171,-12652,2996,-10716,-2736,176,364,0
0.01656171,-12584,2864,-10576,-2768,60,139,0
0.01654978,-12508,2920,-10812,-2736,-280,193,0
0.01656015,-12504,3016,-10760,-2768,-97,315,0
0.01656015,-12584,2936,-10736,-2752,-110,276,0
0.0165612,-12528,3000,-10952,-2736,-135,234,0
0.01655696,-12496,2932,-10828,-2736,-72,262,0
0.01655696,-12508,2876,-10808,-2736,-74,240,0
0.01656081,-12632,2868,-10672,-2736,-125,388,0
0.01756574,-12532,2836,-10832,-2736,-69,73,0
0.0169387,-12572,2992,-10744,-2768,-349,170,0
0.01656032,-12452,2992,-10884,-2752,-343,154,0
0.03312159,-12568,3036,-10952,-2736,-277,255,0
0.01618775,-12560,2880,-10940,-2768,-70,24,0
0.03355747,-12504,3024,-10932,-2736,-279,145,0
0.01656839,-12612,3096,-10888,-2736,-262,192,0
0.01656839,-12672,2932,-10832,-2768,-96,183,0
0.01656982,-12580,3020,-10760,-2736,-150,187,0
0.03314278,-12544,3100,-10808,-2736,-128,200,0
0.0165684,-12456,3068,-10852,-2736,-48,278,0
0.01614111,-12636,2976,-10792,-2736,-74,267,0
0.03357161,-12536,3060,-10984,-2752,-164,102,0
0.01712698,-12528,3056,-10884,-2720,12,232,0
0.01712698,-12520,3004,-10824,-2736,43,167,0
0.01657236,-12600,2936,-10664,-2752,48,450,0
0.01657176,-12520,2864,-10768,-2784,161,267,0
0.01657176,-12412,3016,-10728,-2736,-137,193,0
0.01656863,-12412,3124,-10900,-2752,-163,267,0
0.01656932,-12476,2924,-10836,-2752,-11,209,0
0.01656819,-12392,2968,-10840,-2688,-84,353,0
0.01656819,-12436,3024,-10828,-2784,-131,254,0
0.01657062,-12472,2996,-10848,-2752,-8,330,0
0.01657062,-12604,2844,-10780,-2768,19,225,0
0.01657154,-12384,2992,-10760,-2736,-57,68,0
0.01656954,-12316,3016,-10812,-2784,-168,262,0
0.01657051,-12532,2928,-10904,-2720,3,42,0
0.01657051,-12584,2896,-10812,-2704,-186,-53,0
0.01656911,-12508,3040,-11104,-2736,-324,26,0
0.03314111,-12504,3048,-10872,-2704,-221,230,0
0.03314111,-12568,2888,-10764,-2720,-78,-31,0
0.04970847,-12504,2892,-10740,-2720,15,-8,0
0.04970847,-12324,3020,-10832,-2736,-211,96,0
0.04971233,-12420,3088,-10960,-2736,-143,82,0
0.04971233,-12608,3012,-10828,-2752,-18,124,0
0.04971088,-12572,3088,-10924,-2720,-41,69,0
0.04971088,-12472,3004,-10844,-2752,2,118,0
0.01656977,-12492,2928,-10820,-2752,114,167,0
0.01656957,-12508,3028,-11012,-2768,-37,109,0
0.01656957,-12640,2912,-10980,-2720,-231,-41,0
0.01657119,-12592,2856,-11080,-2736,76,85,0
0.01656945,-12456,3004,-10960,-2736,45,76,0
0.01656945,-12432,2972,-10840,-2768,18,114,0
0.01656995,-12600,2820,-10648,-2704,83,-40,0
0.01656883,-12500,2920,-10880,-2720,-324,156,0
0.01656883,-12572,2936,-10756,-2768,-244,-13,0
0.0165705,-12664,2984,-10876,-2720,-44,88,0
0.01657028,-12532,3112,-10856,-2720,-222,42,0
0.01657028,-12716,2856,-10748,-2768,-155,-51,0
0.01657263,-12676,2864,-10844,-2720,-126,27,0
0.01656946,-12624,2988,-10764,-2736,-209,27,0
0.01656946,-12624,2884,-10748,-2736,-215,-33,0
0.01656958,-12560,2992,-10812,-2736,-258,35,0
0.01656848,-12612,2968,-10688,-2704,-173,87,0
0.01656727,-12668,2932,-10844,-2736,-88,-6,0
0.01657093,-12652,2956,-10772,-2720,-77,57,0
0.01657093,-12732,2844,-10888,-2720,-28,104,0
0.01657127,-12644,2920,-10588,-2736,-105,-69,0
0.01657148,-12704,2932,-10740,-2736,-41,-74,0
0.01657121,-12580,2992,-10800,-2736,-60,-64,0
0.01657021,-12688,2868,-10432,-2720,-5,56,0
0.01673063,-12812,2664,-10648,-2704,94,17,0
0.0165687,-12788,2800,-10364,-2704,163,18,0
0.01657213,-12748,2848,-10728,-2704,-130,-290,0
0.01657002,-12792,2868,-10808,-2720,-282,205,0
0.01657157,-12800,2840,-10556,-2720,15,38,0
0.01657012,-12704,2868,-10748,-2704,-57,-100,0
0.01657012,-12624,2868,-10652,-2736,-152,45,0
0.01656765,-12864,2792,-10716,-2752,-51,90,0
0.01656964,-12772,2772,-10692,-2736,-54,-7,0
0.01656964,-12728,2760,-10572,-2720,46,23,0
0.01656726,-12836,2760,-10632,-2720,133,-23,0
0.01656922,-12752,2840,-10616,-2704,-47,120,0
0.01656684,-12784,2712,-10488,-2736,-2,10,0
0.01656872,-12884,2728,-10604,-2736,-35,-80,0
0.01656872,-12924,2884,-10656,-2704,-176,-5,0
0.01656673,-12860,2788,-10552,-2736,-102,-3,0
0.01657033,-12912,2796,-10420,-2720,41,45,0
0.01656417,-12764,2664,-10564,-2688,19,47,0
0.01657004,-12968,2620,-10492,-2720,-5,-27,0
0.01657004,-12652,2680,-10636,-2736,-289,67,0
0.01656699,-12836,2768,-10592,-2688,-41,20,0
0.01656736,-13020,2696,-10540,-2688,-67,92,0
0.01656906,-12924,2832,-10492,-2672,-118,63,0
0.01656669,-12936,2684,-10420,-2672,-24,21,0
0.01656789,-12948,2628,-10452,-2704,-11,38,0
0.01432874,-12992,2704,-10444,-2672,64,101,0
0.01432874,-13000,2752,-10472,-2720,50,91,0
0.01656537,-12968,2680,-10452,-2736,40,61,0
0.01656877,-12848,2572,-10592,-2704,82,159,0
0.01656877,-12948,2748,-10492,-2720,122,176,0
0.01656916,-12932,2528,-10592,-2720,254,210,0
0.01656752,-12856,2680,-10440,-2688,254,171,0
0.01656752,-12908,2540,-10476,-2688,258,159,0
0.0165683,-12908,2536,-10508,-2704,254,71,0
0.01656399,-12968,2428,-10636,-2736,95,54,0
0.01657008,-12972,2448,-10520,-2704,24,142,0
0.01657018,-12872,2476,-10576,-2736,-176,-3,0
0.01656969,-12852,2408,-10496,-2704,-127,33,0
0.01656969,-13000,2512,-10524,-2704,-56,104,0
0.01656929,-12836,2632,-10496,-2720,-50,-11,0
0.01656981,-13036,2668,-10344,-2704,-51,64,0
0.01656894,-12996,2576,-10324,-2720,192,36,0
0.01656894,-12880,2528,-10468,-2704,278,179,0
0.01656804,-13060,2372,-10520,-2672,123,179,0
0.01656804,-12908,2456,-10404,-2704,136,422,0
0.01657069,-12996,2420,-10432,-2720,440,171,0
0.0165681,-12972,2320,-10476,-2720,570,327,0
0.0165681,-12924,2352,-10576,-2720,499,188,0
0.01656946,-12984,2280,-10420,-2720,342,140,0
0.01656757,-12932,2308,-10440,-2688,237,313,0
0.01656492,-13028,2152,-10544,-2656,224,240,0
0.01657539,-13100,2172,-10532,-2688,156,305,0
0.01656617,-12900,2244,-10616,-2704,102,238,0
0.01656617,-12996,2320,-10548,-2704,154,186,0
0.01656926,-12888,2120,-10528,-2704,42,255,0
0.01656926,-12972,2152,-10376,-2720,52,181,0
0.01656956,-12800,2212,-10576,-2672,109,146,0
0.01656822,-12936,2156,-10428,-2672,-28,260,0
0.01656822,-12916,2212,-10696,-2704,-165,353,0
0.01657216,-12832,2288,-10516,-2736,87,219,0
0.01656783,-12856,2092,-10492,-2704,-5,297,0
0.01656783,-12940,2176,-10588,-2704,-71,219,0
0.01656152,-12932,2020,-10576,-2704,-73,255,0
0.01655565,-12884,2136,-10568,-2704,-108,298,0
0.01655565,-12960,2176,-10580,-2688,-68,246,0
0.01655703,-12864,2176,-10708,-2704,-23,202,0
0.01655703,-12912,1988,-10708,-2688,-26,134,0
0.01655863,-12808,2188,-10516,-2704,-57,159,0
0.01655863,-12944,2120,-10568,-2704,-53,190,0
0.01655935,-12936,2116,-10504,-2688,-24,163,0
0.01655662,-12856,2052,-10780,-2672,-39,192,0
0.01655662,-12840,2268,-10732,-2704,-1,113,0
0.01655552,-12904,2164,-10672,-2736,-23,78,0
0.01656101,-12740,2196,-10480,-2688,-65,119,0
0.01655916,-12872,2092,-10524,-2688,-87,209,0
0.01656019,-13032,2028,-10852,-2720,-59,146,0
0.01655971,-12988,2124,-10496,-2704,-49,150,0
0.01655971,-12844,2132,-10724,-2704,-65,96,0
0.01655985,-12904,2160,-10444,-2704,-135,57,0
0.01655675,-12768,2016,-10612,-2688,-60,164,0
0.01655967,-12936,2108,-10496,-2656,43,203,0
0.01655907,-12808,2012,-10584,-2688,34,89,0
0.01655911,-12944,2056,-10456,-2736,-167,132,0
0.0164924,-13040,2096,-10520,-2704,-56,6,0
0.01655827,-12904,2072,-10492,-2704,-27,143,0
0.01655827,-12912,2028,-10716,-2688,-66,130,0
0.01656002,-12836,2112,-10548,-2704,-88,111,0
0.01656027,-12932,2072,-10704,-2720,-76,130,0
0.01656027,-12896,2156,-10568,-2688,-62,89,0
0.0169223,-13016,1968,-10424,-2704,-81,77,0
0.01655701,-12916,2020,-10492,-2688,-23,194,0
0.01655968,-12888,2168,-10536,-2688,-37,86,0
0.01656725,-12892,2096,-10608,-2672,-8,167,0
0.01657041,-12860,2088,-10564,-2704,4,141,0
0.01656936,-13052,2036,-10552,-2672,38,193,0
0.01656936,-12960,2128,-10668,-2688,24,119,0
0.01656911,-12820,2088,-10336,-2688,-53,272,0
0.01657635,-12868,1848,-10552,-2672,-589,-42,0
0.0165673,-12832,2020,-10528,-2672,-166,315,0
0.01656613,-12856,1960,-10700,-2720,-140,257,0
0.01656912,-12872,2052,-10528,-2720,-110,233,0
0.01656912,-12980,1992,-10688,-2688,-70,263,0
0.0165677,-12804,1988,-10564,-2672,-65,162,0
0.01657016,-12944,2044,-10540,-2688,-61,149,0
0.01657016,-12876,1964,-10532,-2688,-51,154,0
0.01656881,-12928,2084,-10396,-2688,-27,130,0
0.01656881,-12816,2032,-10604,-2672,-89,153,0
0.01657117,-12892,2100,-10552,-2688,-65,197,0
0.01656641,-13040,2028,-10544,-2672,-99,211,0
0.01583638,-12856,2048,-10680,-2688,-135,183,0
0.01657581,-12888,1984,-10516,-2656,-145,120,0
0.01657581,-13052,2020,-10548,-2688,-141,178,0
0.01656789,-12856,2020,-10588,-2688,-114,163,0
0.01656455,-12812,2024,-10528,-2688,-53,161,0
0.01657097,-12864,2072,-10616,-2704,-96,172,0
0.01656669,-12920,2004,-10768,-2688,-190,120,0
0.03314118,-12992,2016,-10548,-2688,-107,364,0
0.03314118,-12912,1992,-10324,-2656,-97,648,0
0.0497045,-12796,2056,-10604,-2704,-387,127,0
0.01657152,-12952,1900,-10588,-2688,-106,400,0
0.0165667,-12748,1972,-10700,-2640,-70,109,0
0.0165667,-12860,1976,-10540,-2656,-9,4,0
0.03313654,-12792,2020,-10748,-2688,-128,-43,0
0.0165599,-12832,2040,-10500,-2656,-112,16,0
0.01656702,-12868,2156,-10516,-2688,-110,145,0
0.01656702,-12764,2120,-10564,-2704,-118,45,0
0.01656854,-13032,2132,-10668,-2640,-155,151,0
0.01657044,-12920,2064,-10596,-2672,-143,107,0
0.01656837,-13020,2120,-10424,-2656,-79,184,0
0.01656837,-12820,2104,-10764,-2656,-35,136,0
0.01656893,-13044,2020,-10612,-2672,-11,124,0
0.01656961,-12932,2040,-10688,-2640,-12,189,0
0.01657275,-12984,2032,-10740,-2672,-52,150,0
0.01656632,-12844,2148,-10536,-2672,-29,219,0
0.0165648,-13028,1956,-10568,-2688,23,287,0
0.0165648,-12932,2080,-10452,-2656,8,271,0
0.01656872,-12892,1980,-10644,-2672,-32,248,0
0.01656758,-12832,2020,-10764,-2688,-25,245,0
0.0165721,-12724,2008,-10488,-2672,-49,279,0
0.01657029,-12848,2072,-10624,-2672,-50,200,0
0.01657029,-12812,2052,-10656,-2672,-73,201,0
0.02686944,-12964,2052,-10640,-2672,-72,201,0
0.01656862,-12896,2032,-10812,-2688,-102,146,0
0.01656842,-12960,2104,-10596,-2656,-112,188,0
0.01656837,-12900,2040,-10528,-2672,-88,231,1
0.03313112,-12808,2120,-10668,-2640,-95,283,1
0.03313112,-12924,2012,-10612,-2688,-85,189,1
0.04943029,-12972,2052,-10812,-2688,-45,177,1
0.04943029,-12896,1940,-10736,-2688,-60,165,1
0.03342395,-12936,1856,-10692,-2672,-119,129,1
0.03313974,-12868,1976,-10636,-2656,-49,190,1
0.01657175,-12796,2140,-10548,-2656,-21,183,1
0.01656615,-12788,2084,-10576,-2688,-61,246,1
0.01656896,-12860,2016,-10524,-2656,-153,195,1
0.01656998,-12848,1988,-10676,-2672,-38,59,1
0.0165698,-12868,2048,-10608,-2656,37,129,1
0.0165698,-12732,1964,-10812,-2656,-65,142,1
0.01656959,-12796,2096,-10564,-2640,-98,158,1
0.01656834,-12852,1996,-10744,-2640,-102,139,1
0.01657033,-12780,1960,-10564,-2672,-103,102,1
0.01656719,-12828,1996,-10652,-2640,-136,97,1
0.01656719,-12776,2000,-10604,-2656,-110,155,1
0.01657069,-12744,2040,-10648,-2672,-113,230,1
0.01656622,-13012,1928,-10796,-2688,-80,83,1
0.01656994,-12912,2016,-10668,-2688,-8,126,1
0.01656994,-12940,2016,-10824,-2672,-30,116,1
0.01656283,-12856,2004,-10416,-2688,-71,133,1
0.01657022,-12736,1980,-10496,-2672,-85,37,1
0.01657022,-12812,1988,-10864,-2672,-184,-70,1
0.01657012,-13020,2104,-10912,-2688,-297,-145,1
0.01657063,-12880,2124,-10516,-2656,-360,-189,1
0.01657063,-12816,2080,-10672,-2672,-226,-430,1
0.01656732,-12916,2056,-10760,-2672,-337,-518,1
0.01656812,-13120,2048,-10564,-2688,-414,-377,1
0.01656812,-13024,2020,-10516,-2640,-470,-304,1
0.01657007,-12912,2152,-10328,-2656,-457,-332,1
0.01656723,-12924,2184,-10324,-2656,-342,-391,1
0.01656806,-13112,2236,-10300,-2608,-302,-189,1
0.01656806,-12976,2336,-10188,-2672,-168,-298,1
0.01657235,-13100,2216,-10460,-2640,-278,-276,1
0.01657235,-13268,2228,-10328,-2640,-591,20,1
0.01656736,-12980,2344,-10328,-2672,-425,166,1
0.01656477,-13144,2352,-10068,-2672,-122,-47,1
0.01656477,-12944,2392,-10280,-2688,-224,52,1
0.01657176,-13216,2336,-10388,-2672,-580,67,1
0.01657176,-13052,2356,-10276,-2624,-403,70,1
0.0165684,-13160,2344,-10212,-2640,-134,80,1
0.0165684,-13172,2368,-10280,-2672,-334,32,1
0.01657075,-13324,2436,-10176,-2656,-382,80,1
0.01656931,-13252,2400,-10288,-2672,-301,73,1
0.01657169,-13148,2508,-10248,-2656,-307,96,1
0.01656827,-13204,2444,-10092,-2688,-250,47,1
0.0165748,-13216,2488,-10088,-2672,-199,181,1
0.0165748,-13212,2416,-10128,-2640,-216,254,1
0.01656942,-13184,2528,-10172,-2656,-104,18,1
0.0165668,-13188,2520,-10136,-2704,-60,61,1
0.01656937,-13084,2548,-10416,-2688,28,55,1
0.01656934,-13020,2440,-10276,-2640,-58,181,1
0.01656934,-13000,2492,-10120,-2656,-92,226,1
0.01657127,-13164,2528,-10108,-2640,-130,205,1
0.01657127,-13056,2656,-10144,-2624,-273,217,1
0.01656962,-13244,2548,-10360,-2656,-141,241,1
0.01656722,-13124,2456,-10200,-2656,-136,287,1
0.01656722,-13008,2612,-10164,-2672,-276,333,1
0.01656885,-12992,2552,-10168,-2624,-227,244,1
0.01657034,-13268,2452,-10168,-2624,-137,242,1
0.01656769,-13300,2556,-10200,-2624,-78,218,1
0.01656769,-12960,2620,-10156,-2640,-136,255,1
0.01656791,-12984,2672,-10072,-2672,-153,368,1
0.01656791,-13116,2500,-10120,-2672,-17,79,1
0.01656943,-13012,2712,-10200,-2640,-147,200,1
0.01656851,-13080,2668,-10260,-2640,-344,164,1
0.01656851,-12956,2652,-10164,-2656,-241,288,1
0.01656759,-13268,2572,-10228,-2656,37,118,1
0.01656947,-13104,2716,-10436,-2624,-265,166,1
0.01657379,-13116,2628,-10360,-2656,-224,309,1
0.01656825,-13072,2632,-10196,-2640,-84,202,1
0.01656895,-13280,2740,-10332,-2624,-173,257,1
0.01656541,-12900,2784,-10192,-2640,-152,275,1
0.01656541,-12972,2712,-10408,-2640,-62,233,1
0.01656543,-13012,2680,-10320,-2640,-70,356,1
0.01657068,-13044,2716,-10136,-2640,-131,132,1
0.01656872,-12960,2780,-10280,-2624,90,248,1
0.01656872,-13128,2672,-10408,-2640,140,164,1
0.01656921,-13040,2624,-10272,-2624,81,268,1
0.01656952,-13156,2648,-10308,-2656,84,271,1
0.01656952,-13176,2620,-10308,-2640,-36,203,1
0.0165727,-12940,2720,-10392,-2640,-190,197,1
0.0165492,-13164,2812,-10248,-2624,-111,309,1
0.01656482,-13172,2660,-10360,-2608,-67,273,1
0.01656482,-13076,2752,-10300,-2640,-176,259,1
0.01655709,-13184,2692,-10156,-2608,-20,256,1
0.01656058,-13080,2688,-10376,-2624,-2,206,1
0.01656058,-13012,2548,-10240,-2656,-61,316,1
0.01656054,-13128,2468,-10292,-2624,87,69,1
0.01655904,-12972,2700,-10296,-2640,-68,201,1
0.03312026,-13024,2772,-10492,-2640,-212,161,1
0.01655864,-12980,2828,-10376,-2608,-305,182,1
0.0165596,-13084,2652,-10204,-2624,-25,188,1
0.01655949,-12816,2712,-10280,-2640,-97,116,1
0.01655949,-12896,2856,-10348,-2608,-209,305,1
0.01655523,-13036,2624,-10344,-2624,-102,195,1
0.01656238,-13220,2700,-10384,-2624,-392,97,1
0.01655821,-13120,2884,-10404,-2640,-421,241,1
0.01656573,-13120,2772,-10524,-2640,-24,325,1
0.01656147,-13036,2668,-10240,-2640,8,345,1
0.01656147,-12940,2812,-10268,-2592,-248,122,1
0.01655766,-12944,2780,-10284,-2656,-57,188,1
0.01655766,-12984,2776,-10496,-2608,57,61,1
0.01656031,-13036,2780,-10476,-2640,112,179,1
0.01656155,-13024,2724,-10416,-2624,132,306,1
0.01655914,-12852,2800,-10268,-2640,76,138,1
0.01656181,-12916,2768,-10328,-2624,-269,130,1
0.01655765,-12956,2664,-10300,-2656,-225,276,1
0.01655765,-12804,2804,-10288,-2608,-110,212,1
0.01662931,-13048,2760,-10396,-2656,-234,197,1
0.01657267,-12896,2816,-10500,-2624,-198,119,1
0.01657622,-12996,2704,-10448,-2640,-115,201,1
0.01657622,-12908,2792,-10392,-2624,-34,320,1
0.01632144,-12888,2688,-10280,-2576,-86,-31,1
0.01657523,-12876,2876,-10532,-2608,-274,118,1
0.01657358,-12856,2940,-10372,-2624,-311,143,1
0.01657451,-12964,2852,-10532,-2640,-177,223,1
0.01657172,-12892,2820,-10312,-2608,17,78,1
0.01657172,-12912,2860,-10348,-2624,-265,166,1
0.01657086,-12928,2916,-10320,-2656,-130,309,1
0.01657086,-12908,2764,-10432,-2640,-129,207,1
0.01657283,-12964,2792,-10556,-2608,-176,201,1
0.01657182,-13064,2844,-10428,-2624,-94,282,1
0.01657182,-12712,2960,-10712,-2640,-100,260,1
0.01632448,-12868,2832,-10308,-2640,-100,366,1
0.01657685,-12840,2968,-10432,-2608,-214,115,1
0.0165736,-12980,2916,-10476,-2624,48,241,1
0.01657381,-13056,2764,-10632,-2592,79,185,1
0.01657534,-13104,2892,-10432,-2608,154,434,1
0.0165714,-12804,2792,-10444,-2624,197,296,1
0.01657631,-12996,2764,-10460,-2624,-139,233,1
0.01657238,-12752,2872,-10328,-2640,-275,345,1
0.01657921,-13000,2800,-10628,-2608,-65,387,1
0.01657638,-12860,2976,-10428,-2624,-76,316,1
0.01657128,-12748,2924,-10712,-2624,-175,347,1
0.01657537,-12816,2784,-10492,-2624,-53,274,1
0.01657123,-12896,2760,-10348,-2656,-129,366,1
0.01657123,-12624,2724,-10344,-2608,0,146,1
0.0165728,-12780,2752,-10216,-2624,-51,-119,1
0.01657961,-12664,2944,-10472,-2608,-387,125,1
0.01657302,-12976,2932,-10524,-2608,-217,167,1
0.01657271,-13008,2784,-10480,-2608,-14,238,1
0.01657255,-12972,2856,-10424,-2608,-35,159,1
0.01657462,-12956,2928,-10340,-2624,-246,257,1
0.01657462,-12928,2836,-10524,-2592,-131,282,1
0.01658141,-12852,2924,-10440,-2640,-105,235,1
0.01657417,-12876,2932,-10584,-2624,-98,229,1
0.01657417,-12788,2984,-10388,-2624,-98,246,1
0.01657975,-12884,3008,-10456,-2640,-6,244,1
0.0165754,-12792,2928,-10500,-2592,-123,224,1
0.01657524,-12912,2964,-10472,-2592,-66,150,1
0.01657524,-12912,2868,-10428,-2624,30,135,1
0.01657511,-12900,2840,-10748,-2592,-59,24,1
0.0165727,-12872,2848,-10584,-2624,-58,355,1
0.01657565,-13012,2864,-10340,-2624,225,465,1
0.01657417,-12840,2756,-10472,-2576,-214,369,1
0.01657675,-12788,2984,-10452,-2608,-332,402,1
0.01657675,-12700,2848,-10608,-2608,-222,375,1
0.01657509,-12880,3004,-10664,-2608,-220,357,1
0.01657318,-12588,2964,-10436,-2560,-29,376,1
0.01657318,-12580,2840,-10668,-2608,-90,327,1
0.01671557,-12692,2916,-10456,-2640,-28,394,1
0.01671557,-12576,2796,-10444,-2624,82,239,1
0.01657459,-12812,2760,-10524,-2592,-209,215,1
0.01657081,-12708,2960,-10724,-2640,-266,101,1
0.01657541,-12760,2984,-10472,-2624,-219,290,1
0.01657385,-12740,2872,-10484,-2608,-8,159,1
0.01657325,-12612,2952,-10752,-2576,-135,84,1
0.01657559,-12632,2872,-10644,-2592,-182,285,1
0.01657559,-12732,2804,-10684,-2576,-73,190,1
0.01634383,-12816,2920,-10708,-2608,-251,86,1
0.01666649,-12864,2956,-10648,-2576,-222,185,1
0.01657548,-12580,3016,-10648,-2608,-148,296,1
0.01657548,-12668,2852,-10628,-2624,-127,365,1
0.01657069,-12644,2976,-10624,-2608,-211,209,1
0.01657717,-12520,3004,-10596,-2624,-10,290,1
0.01657731,-12744,3016,-10596,-2608,117,222,1
0.01657731,-12636,2908,-10784,-2624,75,213,1
0.01657459,-12632,2884,-10620,-2608,274,454,1
0.01657343,-12672,2924,-10528,-2624,115,209,1
0.01657531,-12680,3012,-10688,-2624,-238,283,1
0.01657271,-12744,2976,-10720,-2592,-114,247,1
0.01657445,-12656,2952,-10600,-2592,-10,274,1
0.01657652,-12744,2900,-10652,-2608,-185,267,1
0.01657652,-12780,2884,-10696,-2592,-118,266,1
0.01657548,-12896,2888,-10608,-2576,49,363,1
0.01657541,-12904,2860,-10708,-2592,-88,230,1
0.01657541,-12764,2848,-10872,-2576,-31,339,1
0.01657407,-12688,2996,-10628,-2608,28,546,1
0.01657396,-12684,2996,-10568,-2576,-70,258,1
0.01657322,-12476,3108,-10832,-2576,-184,227,1
0.01657523,-12664,2984,-10776,-2608,-187,284,1
0.01607756,-12724,2904,-10760,-2608,-54,205,1
0.01607756,-12444,2840,-10800,-2592,40,130,1
0.01657275,-12460,2876,-10528,-2608,-153,164,1
0.0165547,-12568,2972,-10664,-2576,-93,244,1
0.01657094,-12696,2916,-10760,-2592,-70,89,1
0.01657094,-12568,2884,-10920,-2608,-65,162,1
0.01657098,-12736,2728,-10828,-2608,-51,199,1
0.01657441,-12688,2928,-10768,-2592,7,232,1
0.01657441,-12684,2892,-10792,-2576,-101,257,1
0.01657065,-12732,2896,-10788,-2576,-76,30,1
0.01657065,-12524,2820,-10740,-2624,25,180,1
0.01656927,-12592,3008,-10816,-2608,21,84,1
0.01657297,-12696,2824,-10740,-2608,100,254,1
0.01656993,-12544,2924,-10532,-2624,203,243,1
0.01656881,-12720,2884,-10812,-2624,-82,179,1
0.01656985,-12636,2964,-10804,-2576,-203,204,1
0.01656879,-12608,2948,-10732,-2592,31,181,1
0.01657475,-12576,2888,-10752,-2576,-44,204,1
0.01656763,-12428,2804,-10760,-2592,-54,192,1
0.01657603,-12820,2852,-10800,-2608,-82,191,1
0.01657063,-12520,2912,-10740,-2592,-24,253,1
0.01657258,-12628,2848,-10612,-2576,-121,127,1
0.01657315,-12664,2908,-10788,-2592,-6,182,1
0.01657315,-12600,2792,-10788,-2592,-15,205,1
0.01656949,-12712,2992,-10756,-2608,-83,139,1
0.01656552,-12472,2972,-10664,-2592,-97,339,1
0.01657115,-12776,2744,-10744,-2608,45,62,1
0.01656836,-12640,2776,-10776,-2592,-124,76,1
0.01657296,-12452,2928,-10676,-2576,-250,39,1
0.01657296,-12708,2736,-10760,-2608,-153,229,1
0.01656976,-12576,2844,-10812,-2592,8,-12,1
0.01656976,-12488,2852,-10808,-2576,-137,79,1
0.01657526,-12676,2784,-10796,-2592,-153,215,1
0.01656994,-12576,2832,-10708,-2592,-59,117,1
0.01656936,-12784,2812,-10896,-2624,-73,122,1
0.01657261,-12832,2928,-10740,-2608,-64,159,1
0.01657199,-12624,2884,-10628,-2576,-56,182,1
0.01657199,-12620,2840,-10580,-2560,-25,253,1
0.01656899,-12612,2744,-10860,-2576,-123,40,1
0.01656899,-12512,2844,-10944,-2608,-42,152,0
0.01676436,-12724,2828,-10708,-2576,111,121,0
0.01657006,-12536,2876,-10676,-2608,76,134,0
0.01657092,-12472,2780,-10716,-2576,179,295,0
0.01652485,-12656,2712,-10760,-2608,27,107,0
0.01656836,-12672,2816,-10584,-2576,-311,197,0
0.01656708,-12720,2796,-10804,-2576,-91,255,0
0.01656708,-12748,2908,-10816,-2576,-26,224,0
0.0165677,-12544,2864,-10924,-2608,-152,185,0
0.01656174,-12448,2828,-10820,-2608,-24,225,0
0.01662742,-12492,2848,-10776,-2576,-48,228,0
0.01662742,-12696,2872,-10792,-2560,-75,176,0
0.03313048,-12516,2856,-10860,-2576,-91,195,0
0.03313048,-12496,2884,-10736,-2576,-116,179,0
0.03313639,-12736,2840,-10744,-2576,0,205,0
0.01656724,-12468,2864,-10688,-2608,92,112,0
0.01656724,-12440,2792,-10808,-2608,-112,257,0
0.01656697,-12484,2960,-10648,-2592,-166,152,0
0.01656697,-12468,2924,-10792,-2592,-2,172,0
0.01656804,-12628,2860,-10772,-2592,-48,131,0
0.01656731,-12516,2800,-10692,-2592,-90,177,0
0.01656731,-12668,2716,-10732,-2576,-94,304,0
0.01656569,-12656,2792,-10612,-2560,-47,111,0
0.0165695,-12624,2912,-10716,-2560,-235,96,0
0.01656745,-12668,2800,-10772,-2592,-84,286,0
0.01656745,-12760,2724,-10728,-2608,20,271,0
0.01658188,-12400,2780,-10704,-2576,218,130,0
0.01657971,-12404,2832,-10736,-2576,84,137,0
0.01657562,-12488,2888,-10860,-2576,123,363,0
0.01657562,-12724,2704,-10572,-2576,158,202,0
0.01657997,-12408,2860,-10736,-2560,-88,3,0
0.01657997,-12668,2692,-10800,-2576,18,197,0
0.01658306,-12564,2772,-10760,-2560,1,210,0
0.01657067,-12672,2688,-10848,-2592,8,243,0
0.01657721,-12596,2588,-10808,-2608,55,306,0
0.01658023,-12464,2736,-10564,-2560,24,148,0
0.01658042,-12584,2824,-10796,-2608,-61,164,0
0.01658129,-12648,2656,-11064,-2576,5,-4,0
0.0165828,-12676,2652,-10844,-2576,271,247,0
0.01657725,-12732,2592,-10768,-2592,181,175,0
0.01657725,-12376,2724,-10764,-2576,-186,116,0
0.01657483,-12640,2628,-10852,-2544,-227,195,0
0.01657483,-12420,2760,-10840,-2576,-75,168,0
0.01657946,-12588,2756,-10764,-2576,-50,184,0
0.01658072,-12460,2788,-10796,-2560,79,195,0
0.01658072,-12372,2608,-10892,-2608,51,157,0
0.01658044,-12720,2500,-10944,-2544,-258,144,0
0.01657986,-12728,2560,-10832,-2592,-136,247,0
0.01658169,-12580,2664,-10828,-2576,-219,125,0
0.01656639,-12544,2748,-10808,-2576,-203,158,0
0.01657869,-12552,2772,-10860,-2592,-192,174,0
0.01658041,-12480,2740,-10860,-2608,-209,191,0
0.01657894,-12788,2656,-10848,-2608,-281,76,0
0.01657912,-12560,2708,-10744,-2576,-172,109,0
0.01657912,-12752,2668,-10936,-2560,-208,-110,0
0.01657827,-12756,2736,-10988,-2576,-147,1,0
0.01657559,-12476,2784,-10744,-2560,-48,112,0
0.01680395,-12552,2752,-10760,-2544,-69,42,0
0.0165792,-12452,2864,-10736,-2576,-112,-210,0
0.0165792,-12656,2780,-10760,-2592,63,-284,0
0.0165817,-12668,2656,-10792,-2544,46,174,0
0.0165817,-12908,2560,-10716,-2560,87,68,0
0.01658281,-12516,2632,-10756,-2576,53,-77,0
0.01658281,-12760,2692,-10688,-2576,82,151,0
0.01658106,-12712,2524,-10744,-2576,198,200,0
0.01657878,-12868,2548,-10856,-2576,193,-63,0
0.01657878,-12840,2444,-10772,-2576,-25,19,0
0.01657889,-12672,2580,-10732,-2592,-260,257,0
0.01658119,-12744,2508,-10764,-2560,-289,246,0
0.01658119,-12764,2464,-10740,-2576,-116,-84,0
0.01657874,-12744,2692,-10736,-2560,-25,-239,0
0.01657874,-12620,2680,-10696,-2544,-42,2,0
0.01658138,-12836,2484,-10700,-2544,-56,36,0
0.01658138,-12912,2456,-10588,-2560,89,-76,0
0.01605684,-12640,2476,-10460,-2576,166,-24,0
0.01657951,-12800,2508,-10516,-2560,-219,-74,0
0.0165795,-12844,2588,-10740,-2576,-190,97,0
0.0165728,-12848,2456,-10700,-2592,-9,224,0
0.0165728,-12780,2620,-10624,-2560,-208,162,0
0.01657574,-12912,2512,-10732,-2560,-208,217,0
0.01657574,-12820,2568,-10748,-2560,-147,148,0
0.01657522,-12972,2432,-10528,-2576,-180,122,0
0.01657554,-12684,2480,-10608,-2560,-92,-40,0
0.01657554,-12724,2584,-10632,-2576,-132,96,0
0.01657394,-12868,2480,-10452,-2544,-78,37,0
0.01657394,-12704,2572,-10512,-2560,-115,86,0
0.01657411,-12960,2484,-10776,-2560,-100,31,0
0.01666202,-12944,2548,-10480,-2560,-79,61,0
0.01666202,-13044,2504,-10504,-2544,-96,16,0
0.01657866,-13056,2508,-10484,-2528,-29,64,0
0.01657394,-12808,2652,-10540,-2544,-52,57,0
0.016568,-12716,2664,-10944,-2560,-55,-136,0
0.016568,-13032,2536,-10580,-2544,-34,-61,0
0.01658249,-12996,2516,-10412,-2560,121,26,0
0.01658249,-12744,2520,-10664,-2576,84,-24,0
0.01657762,-13100,2496,-10492,-2528,62,-233,0
0.01657586,-13056,2496,-10544,-2560,-103,7,0
0.01657705,-13016,2560,-10476,-2544,10,-123,0
0.0165356,-12804,2516,-10600,-2544,-52,-211,0
0.01657679,-13096,2528,-10348,-2544,-10,-92,0
0.01657679,-13088,2420,-10372,-2560,-23,-17,0
0.01657726,-13112,2500,-10440,-2576,-72,-42,0
0.01657552,-12804,2496,-10564,-2576,-50,-31,0
0.01657663,-12812,2468,-10384,-2528,-47,57,0
0.01657663,-12872,2484,-10444,-2576,-81,114,0
0.01667677,-13044,2512,-10244,-2576,70,39,0
0.01657694,-13100,2436,-10376,-2560,70,48,0
0.01657686,-12908,2424,-10380,-2560,91,122,0
0.01657691,-13012,2348,-10588,-2544,158,122,0
0.01657775,-12872,2344,-10416,-2544,158,114,0
0.01657775,-12984,2264,-10364,-2544,193,154,0
0.01657678,-12900,2476,-10400,-2560,70,93,0
0.01657901,-13060,2368,-10536,-2576,9,143,0
0.01657791,-13120,2284,-10292,-2544,67,215,0
0.01657791,-13148,2372,-10336,-2544,2,365,0
0.01657872,-12964,2444,-10488,-2544,102,233,0
0.01657661,-12908,2348,-10296,-2560,181,323,0
0.01657786,-12868,2272,-10524,-2544,255,575,0
0.0165784,-13016,2152,-10568,-2544,210,161,0
0.01657546,-12788,2244,-10424,-2576,227,-34,0
0.01657546,-12916,2164,-10484,-2560,4,223,0
0.01657744,-12936,2244,-10428,-2560,63,190,0
0.01657753,-12960,2180,-10436,-2560,8,149,0
0.01657753,-13024,2152,-10504,-2528,-74,178,0
0.016585,-13104,2228,-10504,-2544,-28,198,0
0.016585,-13060,2228,-10592,-2560,6,261,0
0.01658006,-12812,2308,-10544,-2576,16,158,0
0.01657562,-13112,2192,-10500,-2560,-36,99,0
0.01657562,-12872,2296,-10524,-2560,-23,289,0
0.01657584,-12996,2296,-10260,-2528,116,236,0
0.01657584,-12984,2280,-10416,-2528,121,209,0
0.016578,-12988,2064,-10600,-2528,19,74,0
0.01657598,-13068,2272,-10424,-2544,43,107,0
0.01657674,-12796,2136,-10472,-2512,104,100,0
0.01657674,-13024,2084,-10576,-2576,36,101,0
0.01657618,-12912,2152,-10604,-2544,55,111,0
0.01657394,-13128,2024,-10576,-2528,79,157,0
0.01657394,-13096,1992,-10300,-2544,46,198,0
0.01657626,-12876,2128,-10416,-2560,0,157,0
0.01657728,-12928,2020,-10256,-2528,41,219,0
0.01657728,-12936,2064,-10520,-2544,34,263,0
0.01657824,-13020,2040,-10472,-2544,92,250,0
0.01657736,-13008,2028,-10420,-2528,42,303,0
0.01657736,-12840,1888,-10452,-2528,67,374,0
0.01657409,-12912,2144,-10468,-2560,131,227,0
0.01657409,-12840,2032,-10612,-2544,70,179,0
0.0165719,-12824,1996,-10384,-2512,67,282,0
0.01657276,-12740,1948,-10768,-2560,49,376,0
0.01657276,-13116,1844,-10480,-2544,-71,343,0
0.01657645,-12884,1960,-10540,-2528,-422,-157,0
0.01658395,-13004,1952,-10648,-2528,-52,340,0
0.01658395,-12780,2008,-10616,-2528,-38,292,0
0.01657964,-12804,1936,-10632,-2528,9,199,0
0.01657964,-12836,1892,-10524,-2528,-40,261,0
0.01658119,-12980,1924,-10456,-2528,-62,232,0
0.01658119,-12912,1952,-10532,-2544,-61,232,0
0.0165772,-12968,2040,-10580,-2560,-101,133,0
0.01657658,-12808,1916,-10560,-2560,-105,31,0
0.01657608,-12956,1920,-10448,-2496,-89,329,0
0.01657725,-12824,1972,-10664,-2496,-36,302,0
0.01657816,-13016,1828,-10588,-2528,-20,230,0
0.01657816,-12900,1996,-10688,-2560,8,193,0
0.01657808,-12740,2028,-10700,-2544,-107,124,0
0.0165779,-12860,2020,-10580,-2560,-60,226,0
0.0165779,-12956,2084,-10436,-2512,42,261,0
0.01657592,-13040,1776,-10696,-2512,47,283,0
0.01657778,-13068,1796,-10616,-2544,-97,232,0
0.01657778,-12832,1876,-10644,-2528,-45,120,0
0.01657733,-12908,1984,-10524,-2528,42,145,0
0.01657733,-12760,2068,-10620,-2544,-4,194,0
0.01657572,-13036,1860,-10604,-2528,-69,138,0
0.01657587,-12980,1880,-10512,-2528,-74,139,0
0.01657443,-13080,1832,-10808,-2512,-60,149,0
0.01657615,-13000,1932,-10580,-2560,-84,165,0
0.01657776,-13032,1900,-10772,-2528,-8,183,0
0.01657648,-12804,1916,-10508,-2560,-56,240,0
0.01658019,-12932,1824,-10636,-2528,33,257,0
0.01657467,-12892,1840,-10636,-2512,-25,190,0
0.01657767,-12936,1836,-10600,-2560,3,182,0
0.01657767,-12936,1836,-10648,-2528,-21,124,0
0.01657724,-13064,1752,-10748,-2544,-28,189,0
0.01656763,-12740,1840,-10628,-2544,-45,82,0
0.01656763,-12860,1848,-10460,-2512,-122,217,0
0.01657505,-12936,1856,-10632,-2544,-99,165,0
0.01657955,-12788,1848,-10608,-2512,-83,231,0
0.01637445,-12772,1832,-10660,-2528,-45,257,0
0.0165736,-12764,1780,-10680,-2512,-64,257,0
0.0165787,-13068,1704,-10652,-2512,-71,200,0
0.01657465,-12976,1852,-10684,-2496,-90,181,0
0.01657465,-13004,1796,-10636,-2496,-104,196,0
0.01657457,-12940,1876,-10652,-2512,-120,209,0
0.01657726,-12972,1852,-10688,-2544,-139,161,0
0.01657726,-12936,1816,-10612,-2512,-77,245,0
0.01657649,-12980,1752,-10668,-2496,-82,230,0
0.01657852,-12732,1836,-10588,-2496,-81,130,0
0.01657852,-12760,1792,-10524,-2576,-131,129,0
0.0165791,-12920,1812,-10540,-2528,8,126,0
0.01657833,-12980,1792,-10504,-2528,10,272,0
0.01657281,-12960,1764,-10820,-2528,-85,127,0
0.01657753,-12800,1724,-10764,-2528,-131,175,0
0.01657851,-12804,1952,-10508,-2528,5,61,0
0.01657733,-13036,1872,-10860,-2528,-115,260,0
0.01657433,-13044,1800,-10816,-2544,-193,86,0
0.01657823,-12968,1720,-10428,-2512,-95,169,0
0.01657625,-12800,1832,-10552,-2528,-106,138,0
0.01657625,-13064,1788,-10676,-2528,-111,119,0
0.01657525,-12864,1844,-10792,-2480,-47,216,0
0.01658014,-12964,1844,-10528,-2512,-100,151,0
0.01657226,-12880,1832,-10716,-2528,-62,164,0
0.01657226,-13152,1816,-10548,-2544,-88,157,0
0.01655231,-12764,1816,-10680,-2496,-31,182,0
0.01657475,-12728,1848,-10632,-2528,-87,173,0
0.01657445,-12708,1904,-10556,-2528,-27,168,0
0.0165749,-13012,1728,-10660,-2512,-40,117,0
0.01657604,-12864,1944,-10684,-2512,-114,98,0
0.01657773,-12784,1952,-10568,-2480,-110,138,0
0.01657532,-12724,1744,-10728,-2512,-73,186,0
0.01657474,-12972,1896,-10352,-2512,-96,223,0
0.01657521,-12808,1664,-10660,-2512,-98,132,0
0.01657549,-12732,1880,-10536,-2512,-108,161,0
0.01657549,-13100,1812,-10496,-2512,-143,208,0
0.01657442,-12688,1940,-10656,-2512,-104,177,0
0.01657367,-13008,1716,-10696,-2496,-93,164,0
0.01657367,-12848,1868,-10596,-2528,-67,209,0
0.01657506,-13040,1852,-10644,-2512,-104,118,0
0.01657493,-12808,1912,-10520,-2528,-189,160,0
0.01657481,-12984,1792,-10452,-2528,-17,91,0
0.01657673,-12632,1892,-10484,-2512,-2,294,0
0.01657666,-12960,1808,-10800,-2480,-125,134,0
0.01657666,-13020,1716,-10632,-2544,-118,161,0
0.01657404,-12848,1820,-10656,-2528,-6,-6,0
0.01657422,-12880,1932,-10716,-2512,-86,235,0
0.01657422,-13060,1672,-10684,-2496,-122,44,0
0.01657773,-12832,1860,-10860,-2528,-140,26,0
0.01657392,-12776,1884,-10480,-2512,-160,21,0
0.01657721,-12872,1860,-10588,-2544,-150,149,0
0.01657468,-12784,1916,-10724,-2512,-66,174,0
0.01657481,-12712,1836,-10488,-2528,-100,208,0
0.01657695,-12828,1928,-10568,-2480,-78,162,0
0.01657426,-13132,1744,-10712,-2512,-34,144,1
0.01657563,-12932,1892,-10704,-2496,-23,105,1
0.01657422,-12944,1788,-10496,-2480,-68,154,1
0.0165734,-12852,1856,-10668,-2480,-63,162,1
0.0165734,-12844,1920,-10700,-2512,-53,182,1
0.0165756,-13028,1908,-10384,-2512,-118,129,1
0.01625547,-13104,1888,-10456,-2512,-125,100,1
0.01657582,-13096,1768,-10644,-2544,-139,198,1
0.01657483,-12868,1796,-10432,-2512,-122,180,1
0.01657483,-13000,1828,-10448,-2544,-123,144,1
0.01657975,-12912,1768,-10640,-2480,-112,223,1
0.01657554,-13196,1728,-10560,-2544,-89,260,1
0.01657554,-12992,1816,-10588,-2528,-76,189,1
0.01658145,-13000,1928,-10768,-2512,-88,107,1
0.01636348,-12952,1920,-10508,-2480,-208,126,1
0.01678698,-13080,1912,-10604,-2512,12,116,1
0.01657459,-12820,1872,-10568,-2528,13,260,1
0.01657468,-12964,1768,-10820,-2512,-179,97,1
0.01657464,-12792,1888,-10480,-2496,-148,204,1
0.01657603,-13020,1840,-10620,-2528,-4,-78,1
0.01657603,-12716,1936,-10868,-2464,-98,114,1
0.01657532,-12968,1800,-10564,-2480,-193,-56,1
0.01657494,-12836,1936,-10664,-2480,-207,22,1
0.01657494,-13016,1956,-10648,-2528,-258,-167,1
0.01466344,-13080,1772,-10484,-2480,-313,-213,1
0.01657498,-12956,1972,-10364,-2528,-222,-94,1
0.0165755,-12828,1952,-10616,-2480,-319,-170,1
0.01657492,-12844,1924,-10460,-2496,-223,-2,1
0.01657522,-12908,1884,-10516,-2464,-194,-241,1
0.01657522,-13220,1888,-10664,-2480,-198,-315,1
0.01657385,-12980,2064,-10308,-2496,-316,-37,1
0.01652297,-13168,1904,-10396,-2480,-191,-268,1
0.01662646,-13364,1876,-10528,-2480,-247,-194,1
0.01657903,-13124,1980,-10312,-2528,-298,-173,1
0.01657456,-13232,2020,-10264,-2512,-236,-67,1
0.01393349,-12972,2144,-10420,-2496,-224,6,1
0.01657667,-13056,2024,-10256,-2480,-185,-18,1
0.01657289,-13216,1988,-10116,-2496,-197,75,1
0.01657707,-13144,2168,-10200,-2480,-116,94,1
0.01657546,-13016,2100,-10360,-2496,-83,-14,1
0.0165694,-13052,1972,-10340,-2480,31,-36,1
0.01657481,-13116,2004,-10336,-2496,-116,-9,1
0.016574,-13272,2056,-10204,-2496,-352,63,1
0.01657674,-13108,1988,-10128,-2480,-236,10,1
0.01657333,-13220,2140,-10116,-2480,55,-30,1
0.0165776,-13088,2216,-10240,-2496,-299,0,1
0.01657715,-13364,2224,-10280,-2432,-439,168,1
0.01657715,-13216,2008,-10268,-2480,-29,170,1
0.0165729,-13072,2184,-10340,-2512,-175,-2,1
0.01657517,-13084,2216,-10344,-2512,-448,144,1
0.01657308,-13112,2240,-10252,-2480,-264,227,1
0.01657308,-13284,2212,-10264,-2512,-248,119,1
0.01657653,-13320,2204,-10372,-2512,-319,119,1
0.01666969,-12988,2400,-10192,-2480,-301,179,1
0.01666969,-12928,2228,-10128,-2480,-217,294,1
0.01657586,-13152,2368,-10328,-2480,-465,102,1
0.01657453,-13000,2388,-10160,-2480,-260,170,1
0.01657507,-13112,2324,-10264,-2512,-46,168,1
0.01657791,-13104,2392,-10284,-2480,-113,203,1
0.01657824,-13128,2320,-10316,-2512,-151,203,1
0.0165758,-13188,2276,-10124,-2480,-184,310,1
0.0165758,-13276,2452,-10364,-2544,-437,187,1
0.01657681,-13012,2504,-10288,-2464,-305,279,1
0.01657681,-13048,2460,-10096,-2480,-149,257,1
0.01657512,-13188,2548,-10156,-2528,-240,300,1
0.01657536,-12904,2600,-10300,-2512,-187,325,1
0.01657536,-12960,2468,-10312,-2480,-64,299,1
0.01657627,-13092,2364,-10252,-2464,-173,292,1
0.01657627,-13168,2336,-10308,-2464,-234,494,1
0.016575,-12912,2312,-10340,-2496,15,125,1
0.01657183,-13184,2532,-10244,-2480,-132,204,1
0.01657385,-13188,2408,-10536,-2464,-376,223,1
0.01657385,-12980,2436,-10252,-2480,-225,288,1
0.01657248,-12944,2568,-10268,-2480,-78,162,1
0.01648893,-13128,2448,-10244,-2496,-292,131,1
0.01665377,-13044,2528,-10168,-2480,-238,252,1
0.016571,-13368,2364,-10140,-2480,-64,224,1
0.0165736,-12972,2520,-10140,-2496,-156,214,1
0.01657447,-12988,2544,-10240,-2480,-173,299,1
0.01657447,-13232,2464,-10396,-2512,-110,241,1
0.01657306,-13056,2436,-10252,-2480,-71,346,1
0.01657306,-13152,2568,-10312,-2464,-176,182,1
0.01657353,-13172,2344,-10392,-2480,80,281,1
0.01657353,-12884,2628,-10464,-2512,137,219,1
0.01657304,-13192,2408,-10308,-2464,106,236,1
0.01657481,-12872,2552,-10408,-2464,115,266,1
0.01657481,-13008,2556,-10236,-2480,-22,239,1
0.01657039,-13068,2572,-10260,-2480,-267,215,1
0.01657039,-12996,2556,-10380,-2480,-148,267,1
0.01657266,-13160,2496,-10312,-2496,-76,302,1
0.01657433,-13132,2488,-10504,-2512,-136,244,1
0.01657433,-13184,2444,-10460,-2464,-99,253,1
0.01657349,-12852,2488,-10172,-2480,-135,392,1
0.01656836,-12920,2440,-10232,-2464,-70,145,1
0.01656836,-12964,2508,-10284,-2496,-103,209,1
0.01657875,-13200,2500,-10092,-2464,-225,105,1
0.01657323,-13188,2516,-10356,-2480,-288,201,1
0.01657323,-13132,2440,-10376,-2480,-48,192,1
0.01657288,-13144,2496,-10396,-2480,-214,72,1
0.01657288,-13076,2648,-10404,-2512,-271,301,1
0.01657133,-13284,2576,-10360,-2464,-28,274,1
0.01657133,-12952,2572,-10360,-2480,-184,167,1
0.01657608,-13036,2668,-10484,-2496,-114,241,1
0.01657219,-12844,2608,-10284,-2464,-115,254,1
0.01657219,-13092,2496,-10276,-2464,8,327,1
0.01733657,-12984,2652,-10364,-2464,-241,113,1
0.01733657,-12776,2624,-10476,-2480,21,248,1
0.01657145,-13092,2540,-10388,-2496,60,169,1
0.01657464,-13108,2468,-10344,-2432,123,223,1
0.01657011,-12792,2524,-10284,-2480,85,274,1
0.01657194,-12916,2588,-10328,-2464,-92,229,1
0.01657194,-13148,2604,-10476,-2480,-303,190,1
0.01657105,-12984,2596,-10228,-2496,-132,188,1
0.01657152,-12976,2628,-10452,-2496,-61,286,1
0.01657259,-12936,2660,-10484,-2480,-218,201,1
0.01657273,-13176,2512,-10472,-2496,-114,271,1
0.01657273,-12856,2540,-10456,-2480,-39,285,1
0.01657063,-13020,2512,-10264,-2480,-146,127,1
0.01657063,-13032,2448,-10528,-2448,-198,147,1
0.01657159,-13128,2668,-10380,-2496,-256,202,1
0.01657341,-13072,2448,-10320,-2496,-49,205,1
0.01657303,-12804,2664,-10504,-2480,-158,107,1
0.01657227,-13036,2692,-10452,-2448,-240,206,1
0.0165715,-13120,2580,-10408,-2496,-45,244,1
0.0165715,-12976,2640,-10588,-2464,-140,134,1
0.01657486,-13084,2660,-10556,-2480,-89,197,1
0.01657141,-12884,2644,-10408,-2464,-122,257,1
0.01657094,-12952,2652,-10444,-2464,-22,313,1
0.01657219,-12696,2612,-10496,-2448,-204,71,1
0.01657219,-12996,2644,-10392,-2480,-51,259,1
0.01657291,-12956,2652,-10676,-2432,-9,130,1
0.01657329,-13076,2612,-10560,-2432,92,105,1
0.01657314,-12820,2448,-10296,-2496,65,311,1
0.01657487,-12744,2720,-10292,-2464,19,139,1
0.01657625,-12868,2668,-10308,-2480,-249,207,1
0.01656599,-12816,2584,-10516,-2464,-136,278,1
0.01657391,-13100,2568,-10332,-2464,-14,252,1
0.01657391,-12744,2672,-10524,-2464,-140,220,1
0.01657487,-12928,2608,-10616,-2432,-26,211,1
0.01656833,-12996,2652,-10400,-2464,0,392,1
0.01656833,-12740,2540,-10240,-2448,-186,85,1
0.01717337,-12812,2744,-10528,-2432,-212,119,1
0.01657099,-12964,2628,-10528,-2480,-300,83,1
0.01657099,-13108,2648,-10560,-2448,-220,276,1
0.01657149,-12908,2712,-10452,-2480,-109,96,1
0.01657321,-12712,2716,-10532,-2480,-286,105,1
0.01657241,-12868,2672,-10504,-2448,-182,352,1
0.0165741,-12872,2668,-10428,-2432,-150,482,1
0.04971693,-13088,2564,-10416,-2480,-133,341,1
0.04971693,-12992,2620,-10464,-2464,-195,256,1
0.01657238,-12908,2736,-10452,-2448,-90,306,1
0.01657107,-12816,2836,-10400,-2480,-74,311,1
0.01657107,-12828,2696,-10536,-2464,-97,153,1
0.01657277,-12764,2752,-10544,-2480,-4,259,1
0.01657054,-12924,2672,-10604,-2480,72,142,1
0.01657305,-12748,2668,-10528,-2464,101,449,1
0.01657107,-12764,2680,-10436,-2448,155,342,1
0.01657194,-12868,2532,-10492,-2448,-12,191,1
0.01657194,-12772,2680,-10548,-2448,-137,232,1
0.01657271,-12772,2660,-10608,-2464,16,319,1
0.01657504,-12944,2636,-10472,-2464,-53,192,1
0.01657504,-12940,2568,-10524,-2464,-139,164,1
0.01395566,-12764,2736,-10484,-2432,-10,237,1
0.01918943,-12844,2768,-10480,-2464,-101,150,1
0.01656874,-12772,2580,-10616,-2464,-100,202,1
0.01656874,-12764,2568,-10448,-2480,-36,347,1
0.03314234,-12796,2520,-10332,-2448,-253,185,1
0.01657445,-12900,2652,-10796,-2480,-346,102,1
0.01657445,-12828,2736,-10504,-2448,-178,378,1
0.01657332,-12904,2736,-10536,-2448,-123,266,1
0.03314501,-12628,2632,-10580,-2448,-188,99,1
0.03314282,-12496,2728,-10576,-2480,-250,165,1
0.03314282,-12928,2652,-10716,-2448,-93,185,1
0.01657389,-12716,2692,-10644,-2464,-126,56,1
0.01657389,-12792,2684,-10516,-2464,-140,154,1
0.04971871,-12872,2736,-10508,-2480,-94,216,1
0.01657345,-12764,2684,-10436,-2448,-9,210,1
0.01657274,-12796,2596,-10648,-2480,-202,7,1
0.01657354,-12792,2660,-10524,-2432,-1,225,1
0.01657553,-12688,2708,-10604,-2464,-63,130,1
0.0331429,-12756,2804,-10668,-2432,116,46,1
0.0331429,-12940,2560,-10600,-2448,156,274,1
0.01657174,-12608,2760,-10620,-2464,94,139,1
0.01657043,-12672,2692,-10424,-2448,-236,190,1
0.01657043,-12692,2644,-10564,-2432,-108,206,1
0.01657305,-12968,2612,-10468,-2448,-62,140,1
0.01657233,-12664,2700,-10560,-2448,-258,382,1
0.01657233,-12596,2720,-10540,-2464,-38,185,1
0.01657337,-12812,2712,-10580,-2416,-57,228,1
0.01656818,-13056,2564,-10792,-2464,-94,51,1
0.01656818,-12752,2672,-10540,-2432,-79,102,1
0.01657342,-12608,2708,-10548,-2448,-23,317,1
0.01657204,-13024,2740,-10428,-2448,-211,109,1
0.01657115,-12640,2692,-10784,-2448,-268,60,1
0.01657032,-12824,2588,-10684,-2448,-178,269,1
0.01657351,-12772,2700,-10628,-2464,-112,91,1
0.01657212,-12728,2700,-10656,-2448,-153,-23,1
0.01657212,-12816,2640,-10560,-2448,-155,139,1
0.01657263,-12808,2644,-10536,-2480,-92,196,1
0.01657282,-13004,2588,-10600,-2464,-123,85,1
0.01657175,-12800,2704,-10632,-2448,-78,109,1
0.01657524,-12728,2628,-10604,-2496,-39,205,1
0.01657197,-12568,2724,-10732,-2464,16,241,1
0.01657201,-12840,2764,-10620,-2448,-56,119,1
0.01657098,-12916,2652,-10528,-2480,-123,123,1
0.01657346,-12708,2844,-10584,-2448,2,139,1
0.01657346,-12632,2712,-10676,-2448,59,53,1
0.01657237,-12988,2636,-10512,-2448,150,215,1
0.01657265,-12652,2672,-10652,-2448,49,199,1
0.0165724,-12828,2672,-10620,-2448,-101,88,1
0.0165744,-13000,2604,-10440,-2464,-88,222,1
0.01657221,-12608,2712,-10596,-2416,-12,180,1
0.01657058,-12988,2548,-10432,-2432,-93,157,1
0.01657058,-12972,2624,-10484,-2464,-79,191,1
0.01657216,-12752,2464,-10404,-2416,-74,228,1
0.0165753,-12796,2612,-10656,-2480,-134,176,1
0.0165753,-12880,2616,-10560,-2464,-46,195,1
0.0165753,-12836,2688,-10568,-2448,-66,191,1
0.01657139,-12836,2668,-10420,-2448,-148,118,1
0.01657024,-12808,2600,-10628,-2432,-68,204,1
0.01657132,-12700,2656,-10464,-2448,-16,252,1
0.0165712,-12936,2532,-10508,-2448,-233,147,1
0.0165712,-12860,2692,-10728,-2448,-239,-5,1
0.01657182,-12748,2672,-10480,-2464,-108,259,1
0.01657257,-12756,2600,-10704,-2432,-107,-24,1
0.01657257,-12536,2748,-10620,-2432,-180,-2,1
0.0331444,-12844,2660,-10508,-2416,-94,235,1
0.0331444,-12756,2756,-10628,-2448,-19,113,1
0.04970787,-12680,2664,-10544,-2448,-74,143,0
0.01657268,-12836,2692,-10620,-2448,-53,173,0
0.01657264,-12960,2536,-10604,-2448,-47,235,0
0.01656982,-12704,2744,-10616,-2432,-44,260,0
0.03314317,-12960,2648,-10592,-2448,-131,33,0
0.01657164,-13072,2720,-10508,-2432,-12,222,0
0.01657164,-12724,2752,-10620,-2448,31,103,0
0.01657368,-12904,2628,-10568,-2448,81,103,0
0.01657413,-12828,2620,-10604,-2432,141,225,0
0.01657413,-13004,2568,-10456,-2432,82,171,0
0.01657127,-12968,2616,-10440,-2448,-207,165,0
0.01657505,-12732,2596,-10588,-2464,3,223,0
0.01657505,-13000,2440,-10548,-2416,-59,192,0
0.0165725,-12600,2612,-10516,-2432,-167,197,0
0.0165725,-12764,2624,-10656,-2416,-57,211,0
0.0165677,-12772,2644,-10576,-2448,-66,201,0
0.01503087,-13044,2596,-10616,-2448,-95,177,0
0.01657561,-13004,2612,-10424,-2400,-80,187,0
0.01657561,-12680,2676,-10536,-2480,-172,184,0
0.01657083,-12716,2712,-10624,-2448,-107,205,0
0.01657474,-12624,2776,-10600,-2432,-33,178,0
0.01656886,-12788,2596,-10616,-2416,-113,111,0
0.01657078,-12928,2592,-10608,-2432,-53,254,0
0.01656973,-13000,2464,-10460,-2448,-40,123,0
0.01656526,-12692,2636,-10668,-2464,-200,150,0
0.03314505,-12816,2548,-10640,-2432,-202,25,0
0.03314505,-12968,2628,-10664,-2416,-95,296,0
0.01656704,-12620,2720,-10584,-2448,-54,-59,0
0.01657138,-12664,2572,-10604,-2464,-155,73,0
0.01650834,-12696,2704,-10380,-2432,-62,299,0
0.01663131,-12972,2640,-10496,-2416,-154,76,0
0.01657202,-12700,2672,-10632,-2432,-26,201,0
0.01657154,-12812,2628,-10548,-2432,-11,256,0
0.01657164,-12692,2612,-10516,-2448,22,264,0
0.01657164,-12832,2640,-10568,-2448,1,282,0
0.01657317,-12776,2660,-10684,-2448,-182,144,0
0.01656955,-12704,2652,-10456,-2432,-100,205,0
0.01656384,-12600,2628,-10588,-2416,-28,104,0
0.01633331,-12700,2688,-10668,-2448,29,94,0
0.01656996,-13016,2500,-10584,-2432,152,209,0
0.01656996,-12936,2564,-10628,-2432,162,198,0
0.01656943,-12792,2596,-10672,-2416,-141,88,0
0.01656943,-12912,2476,-10620,-2432,-115,318,0
0.0165638,-12656,2628,-10632,-2416,-38,295,0
0.01657218,-12916,2512,-10628,-2448,-203,181,0
0.01656885,-12648,2648,-10460,-2416,-211,160,0
0.01656977,-12704,2500,-10596,-2448,-121,255,0
0.01656977,-13004,2496,-10628,-2448,-136,262,0
0.01657003,-12988,2560,-10584,-2432,-125,212,0
0.01657577,-12744,2596,-10680,-2448,-140,220,0
0.01657577,-12684,2672,-10632,-2400,-103,243,0
0.01657037,-12804,2620,-10676,-2416,-220,153,0
0.01657037,-12916,2540,-10648,-2432,-188,27,0
0.01656607,-12704,2656,-10496,-2400,-4,228,0
0.01656607,-12984,2512,-10704,-2432,-63,73,0
0.01657343,-12832,2520,-10732,-2416,-163,46,0
0.01657065,-12688,2588,-10648,-2432,-33,204,0
0.01657065,-12712,2536,-10404,-2416,-11,113,0
0.01656972,-12764,2684,-10704,-2448,-58,-91,0
0.01656972,-13084,2472,-10616,-2448,24,26,0
0.01656922,-12868,2456,-10572,-2432,7,249,0
0.01657446,-12584,2532,-10472,-2448,-75,-52,0
0.01657446,-12732,2532,-10612,-2416,-293,-107,0
0.01656944,-12700,2620,-10580,-2432,-50,96,0
0.0165693,-12884,2516,-10516,-2416,-77,102,0
0.0165693,-12864,2396,-10592,-2416,-90,196,0
0.01656869,-13076,2548,-10364,-2464,-81,168,0
0.01656722,-13036,2480,-10424,-2416,-63,75,0
0.01656722,-12664,2516,-10600,-2400,-162,326,0
0.01656715,-12652,2544,-10580,-2432,-97,-4,0
0.01657106,-12680,2560,-10468,-2416,10,144,0
0.01656681,-12932,2540,-10588,-2432,187,-196,0
0.01656723,-12884,2620,-10760,-2400,-48,122,0
0.01657113,-12708,2392,-10460,-2400,26,47,0
0.01656809,-12820,2508,-10584,-2416,41,20,0
0.01656809,-12936,2504,-10720,-2400,-114,212,0
0.01656934,-12808,2468,-10308,-2432,-83,192,0
0.01657085,-13040,2432,-10700,-2416,-5,140,0
0.01657085,-12744,2516,-10580,-2432,-21,224,0
0.01656989,-12940,2324,-10436,-2432,-42,178,0
0.01657269,-12748,2440,-10536,-2432,47,179,0
0.0165658,-12720,2428,-10576,-2400,58,169,0
0.01656855,-13116,2380,-10612,-2400,57,110,0
0.01656598,-12792,2500,-10516,-2416,262,-51,0
0.01657057,-13092,2316,-10572,-2400,161,44,0
0.016571,-12956,2288,-10356,-2432,102,78,0
0.0165698,-13080,2312,-10620,-2416,51,82,0
0.01656805,-12860,2328,-10500,-2432,52,111,0
0.01656805,-12680,2376,-10516,-2416,40,196,0
0.01656989,-12920,2356,-10428,-2384,-2,136,0
0.01656898,-12972,2216,-10556,-2416,74,28,0
0.0165704,-12892,2272,-10628,-2400,3,195,0
0.01657349,-12888,2304,-10548,-2416,-15,24,0
0.01657207,-13176,2112,-10380,-2432,-56,200,0
0.01657207,-13072,2224,-10608,-2400,119,148,0
0.01656782,-12772,2336,-10288,-2432,214,320,0
0.01657061,-12968,2284,-10660,-2432,227,-151,0
0.01657255,-12872,2292,-10572,-2448,-89,81,0
0.01657148,-13088,2080,-10332,-2432,156,-9,0
0.01656925,-13172,2096,-10640,-2416,148,-1,0
0.01657049,-12748,2080,-10384,-2384,154,-22,0
0.01656871,-13172,2136,-10292,-2368,88,20,0
0.01656827,-13228,2072,-10536,-2432,21,78,0
0.01657183,-13028,2124,-10412,-2400,59,73,0
0.01657009,-13196,2044,-10400,-2416,-76,122,0
0.01657016,-12980,2124,-10388,-2416,-44,416,0
0.01656978,-13112,2104,-10452,-2400,109,301,0
0.01657276,-12820,2040,-10584,-2416,201,174,0
0.01657276,-12796,2084,-10492,-2416,132,140,0
0.0165707,-12928,1980,-10568,-2448,-65,-94,0
0.01657095,-12908,1964,-10464,-2416,56,27,0
0.01656842,-13132,2012,-10612,-2416,106,98,0
0.01712755,-13060,2028,-10464,-2416,52,-26,0
0.01656944,-12880,2136,-10588,-2416,-101,14,0
0.01657203,-12840,1996,-10424,-2416,-192,-121,0
0.01657203,-12876,1932,-10464,-2448,-17,84,0
0.01657217,-12904,2036,-10360,-2416,128,31,0
0.01657252,-13272,1936,-10352,-2416,52,120,0
0.01657252,-13220,1916,-10592,-2416,29,167,0
0.01656954,-13124,1968,-10456,-2416,39,188,0
0.01656668,-13080,1984,-10404,-2384,47,206,0
0.01657088,-12748,1976,-10644,-2400,42,101,0
0.01657091,-13068,1872,-10488,-2432,70,176,0
0.01657057,-13052,1808,-10516,-2416,45,272,0
0.01657297,-13136,2016,-10588,-2400,-201,26,0
0.01657129,-13036,1736,-10456,-2400,55,257,0
0.01657005,-12972,1840,-10524,-2384,23,166,0
0.01657069,-13060,1960,-10512,-2416,79,221,0
0.01657069,-13116,1820,-10572,-2400,101,160,0
0.01656915,-12980,1892,-10436,-2432,-179,66,0
0.0165694,-12968,1796,-10428,-2400,70,294,0
0.0165694,-12876,1984,-10272,-2384,199,334,0
0.01657395,-12888,1880,-10616,-2384,153,278,0
0.01657188,-13164,1816,-10628,-2416,-51,463,0
0.0165689,-12868,1912,-10528,-2400,12,288,0
0.01656731,-12724,1816,-10648,-2432,104,144,0
0.01657126,-12948,1832,-10752,-2400,-21,163,0
0.01657126,-12832,1688,-10608,-2384,-32,184,0
0.01657031,-12944,1856,-10440,-2448,-93,187,0
0.01657031,-13176,1740,-10508,-2400,-69,91,0
0.0165705,-13212,1828,-10592,-2384,-121,212,0
0.01657155,-12868,1840,-10604,-2432,-27,295,0
0.01657155,-13100,1748,-10524,-2384,-51,247,0
0.01657046,-12848,1752,-10576,-2400,1,178,0
0.01656621,-13148,1716,-10488,-2416,15,244,0
0.01656621,-12856,1760,-10680,-2416,39,267,0
0.01657192,-13184,1664,-10588,-2416,5,159,0
0.01656878,-12868,1692,-10464,-2384,27,242,0
0.01656878,-12848,1860,-10596,-2384,-19,228,0
0.03313866,-12804,1760,-10476,-2384,-98,257,0
0.01657126,-12880,1828,-10476,-2416,-102,181,0
0.01657126,-13216,1760,-10500,-2416,-82,241,0
0.01656866,-12920,1676,-10484,-2384,-73,204,0
0.0165724,-13136,1732,-10452,-2416,-105,173,0
0.01657082,-12828,1732,-10480,-2400,-82,207,0
0.01655436,-12880,1780,-10616,-2400,-91,189,0
0.01656931,-13128,1660,-10556,-2400,-95,204,0
0.01656931,-12832,1828,-10560,-2368,-102,187,0
0.01657073,-12872,1748,-10552,-2416,-105,198,0
0.01656724,-13108,1796,-10524,-2400,-102,213,0
0.01656724,-13192,1644,-10392,-2384,-57,158,0
0.01656795,-12876,1636,-10588,-2400,-41,170,0
0.01656999,-13068,1720,-10644,-2368,-83,141,0
0.01656999,-13164,1760,-10432,-2400,-155,177,0
0.01656893,-12800,1804,-10296,-2352,-11,173,0
0.01656994,-12796,1700,-10500,-2416,18,246,0
0.01657029,-12904,1704,-10748,-2384,-78,141,0
0.01657269,-13068,1724,-10428,-2400,-114,233,0
0.0165698,-12732,1936,-10504,-2384,26,120,0
0.0165698,-12908,1728,-10720,-2352,11,176,0
0.01657123,-13040,1608,-10792,-2384,-137,136,0
0.01657006,-13048,1708,-10440,-2432,-119,172,0
0.01656931,-13000,1560,-10576,-2416,-90,91,0
0.01657101,-13032,1860,-10520,-2400,-101,135,0
0.01656888,-12924,1764,-10464,-2368,-52,227,0
0.0165701,-13076,1776,-10500,-2368,-118,155,0
0.01656841,-12980,1744,-10572,-2368,-55,112,0
0.01657164,-12804,1764,-10524,-2384,-68,114,0
0.016567,-13096,1560,-10508,-2352,-8,168,0
0.016567,-13128,1728,-10592,-2384,-69,107,0
0.01656949,-12764,1784,-10540,-2384,-43,127,0
0.01657109,-12896,1692,-10488,-2384,-89,157,0
0.01656971,-12816,1732,-10568,-2400,-141,133,0
0.01656971,-12788,1796,-10520,-2384,-116,114,0
0.01656944,-13040,1784,-10540,-2384,-108,216,0
0.01657209,-12896,1792,-10480,-2368,-67,168,0
0.01656741,-12768,1796,-10544,-2384,-102,137,0
0.01657096,-12780,1712,-10544,-2416,-86,126,0
0.01656797,-13064,1752,-10516,-2384,-109,149,0
0.01656797,-13144,1696,-10468,-2416,-124,170,0
0.01656973,-12692,1828,-10416,-2400,-119,156,0
0.01656955,-12984,1696,-10652,-2416,-80,172,0
0.01656966,-13176,1644,-10628,-2352,-81,182,0
0.01656966,-13128,1684,-10604,-2368,-114,136,0
0.01656764,-12924,1816,-10432,-2432,-118,171,0
0.01657294,-12776,1760,-10480,-2368,4,147,0
0.01656973,-12820,1700,-10556,-2384,-18,243,0
0.01656863,-13180,1712,-10628,-2400,-151,112,0
0.01656879,-12880,1808,-10440,-2368,-99,95,0
0.01656301,-12816,1780,-10440,-2368,-8,176,0
0.01656866,-12988,1792,-10552,-2384,-107,162,0
0.0165684,-13044,1652,-10568,-2384,-97,128,0
0.0165684,-13128,1596,-10648,-2384,-105,90,0
0.01657069,-13212,1692,-10636,-2432,-110,72,0
0.01656974,-12640,1788,-10624,-2368,-125,79,0
0.01656974,-13116,1728,-10624,-2336,-102,187,0
0.01657214,-12984,1660,-10516,-2368,-109,129,0
0.01657214,-12840,1800,-10568,-2352,-122,109,0
0.01657103,-12828,1780,-10400,-2400,-74,138,0
0.01657077,-13076,1900,-10532,-2416,-40,158,0
0.01656688,-12756,1716,-10532,-2352,-55,162,0
0.01657092,-13084,1708,-10368,-2384,-28,173,0
0.01657092,-13044,1776,-10520,-2384,-77,123,0
0.01658191,-12724,1836,-10544,-2400,-126,117,0
0.01656916,-12772,1800,-10588,-2352,-106,95,0
0.01656962,-12848,1800,-10556,-2368,-107,157,0
0.01657065,-12780,1800,-10640,-2400,-127,153,0
0.01657158,-12776,1900,-10564,-2368,-128,109,0
0.01656654,-12860,1732,-10508,-2384,-147,101,0
0.01657037,-13284,1664,-10372,-2368,-125,159,0
0.01657037,-12920,1856,-10484,-2368,-123,182,0
0.0165687,-12896,1748,-10504,-2352,-104,134,0
0.01656977,-12820,1896,-10508,-2384,-85,186,0
0.01656977,-12944,1804,-10624,-2400,-108,148,0
0.01657077,-13000,1736,-10484,-2384,-151,121,0
0.01656839,-12876,1776,-10456,-2368,12,46,0
0.01657009,-13020,1676,-10388,-2352,-32,302,0
0.01657009,-13172,1736,-10472,-2368,-196,114,0
0.01656604,-13020,1704,-10612,-2368,-135,121,0
0.01656791,-12992,1828,-10424,-2352,-11,45,0
0.01656936,-12868,1816,-10528,-2352,-102,178,0
0.01656936,-13240,1732,-10612,-2368,-117,130,0
0.03314619,-13232,1744,-10628,-2384,-127,147,0
0.03314619,-12960,1852,-10468,-2384,-114,116,0
0.01657149,-12928,1876,-10504,-2384,-138,155,0
0.01657044,-13136,1768,-10488,-2352,-82,227,0
0.01656665,-12904,1748,-10508,-2384,-75,233,1
0.01657795,-12856,1824,-10664,-2352,-68,137,1
0.01656871,-12984,1728,-10496,-2352,-33,166,1
0.01657135,-13196,1660,-10600,-2400,-22,176,1
0.01657135,-12764,1712,-10428,-2368,-83,129,1
0.01657002,-13164,1740,-10452,-2384,-37,172,1
0.0165698,-13048,1644,-10528,-2368,-65,180,1
0.01657174,-12884,1768,-10416,-2400,-130,133,1
0.01657269,-13280,1640,-10392,-2384,-91,185,1
0.01656968,-12980,1832,-10512,-2352,-99,149,1
0.01657097,-12888,1748,-10572,-2352,-130,138,1
0.01656981,-13020,1660,-10536,-2368,-160,66,1
0.01656877,-12880,1768,-10496,-2384,-209,0,1
0.01666909,-13008,1768,-10696,-2368,-276,-423,1
0.01666909,-13040,1916,-10464,-2400,-470,-765,1
0.01656973,-13216,1804,-10376,-2352,-376,-245,1
0.01656786,-13260,1688,-10408,-2352,-391,-413,1
0.01657057,-13384,1860,-10140,-2352,-409,-58,1
0.01656629,-13312,1924,-10120,-2368,-89,-131,1
0.01657057,-13144,1840,-10360,-2336,-80,-8,1
0.01657066,-12944,1884,-10504,-2352,-306,58,1
0.01657116,-13000,2024,-10264,-2368,-255,12,1
0.01657116,-13048,2016,-10164,-2336,-75,0,1
0.01657028,-12924,1960,-10396,-2352,-224,77,1
0.01656757,-13004,1920,-10308,-2336,-220,30,1
0.01656757,-13420,1952,-10276,-2352,-90,33,1
0.01657063,-13060,1900,-10212,-2368,-141,68,1
0.01657415,-13140,2000,-10004,-2368,-158,-5,1
0.01657216,-13216,1936,-10180,-2352,-49,86,1
0.01657216,-13080,2092,-10264,-2336,-97,168,1
0.01657102,-13340,1860,-10260,-2368,-65,47,1
0.01657756,-13360,1900,-10292,-2336,42,69,1
0.01656558,-13156,1988,-10256,-2352,36,83,1
0.01656933,-13312,1848,-10212,-2384,-64,153,1
0.01666549,-12976,2024,-10192,-2368,-55,70,1
0.0165694,-13120,1880,-10176,-2352,-122,125,1
0.01657048,-13364,1980,-10156,-2352,-249,128,1
0.01656835,-13364,1864,-10268,-2352,-71,170,1
0.01656917,-13084,2052,-10040,-2336,-212,169,1
0.01657001,-13064,2076,-10144,-2352,-285,259,1
0.01657001,-12996,2028,-10092,-2336,-231,249,1
0.01657011,-13232,1880,-10332,-2352,-159,225,1
0.01657154,-13020,2012,-10344,-2352,-166,184,1
0.01657165,-12952,2040,-10316,-2352,-175,145,1
0.01656961,-12992,2240,-10116,-2384,-351,332,1
0.01656961,-13268,2004,-10028,-2336,-61,92,1
0.01657032,-13404,2156,-10292,-2352,-151,127,1
0.01657032,-13220,2260,-10468,-2368,-552,127,1
0.01656936,-13092,2040,-10252,-2400,-268,258,1
0.01656683,-13096,2060,-10072,-2352,-44,152,1
0.01656683,-13400,2160,-10216,-2336,-384,110,1
0.01656982,-13372,2212,-10260,-2368,-318,312,1
0.01656982,-13232,2072,-10260,-2352,-137,255,1
0.01657549,-13284,2224,-10372,-2352,-201,233,1
0.01656911,-13344,2184,-10252,-2352,-266,242,1
0.01657089,-13272,2228,-10112,-2352,-102,278,1
0.01657089,-13316,2236,-10236,-2352,-213,295,1
0.01656935,-13400,2208,-10052,-2368,-124,156,1
0.01657453,-12960,2332,-10224,-2352,79,181,1
0.01656952,-12944,2224,-10280,-2384,77,130,1
0.01656967,-13284,2104,-10212,-2352,38,233,1
0.01657263,-13068,2244,-10092,-2352,38,236,1
0.01656781,-13240,2248,-10312,-2352,-98,150,1
0.0165685,-13156,2232,-10324,-2336,-213,224,1
0.016574,-13008,2372,-10244,-2368,-164,297,1
0.016574,-12992,2296,-10340,-2384,-203,250,1
0.0165705,-13084,2268,-10264,-2384,-150,278,1
0.01657157,-13192,2188,-10180,-2336,-57,287,1
0.01657157,-13252,2100,-10376,-2320,-126,220,1
0.01657134,-13188,2184,-10304,-2352,-152,321,1
0.01656982,-13332,2052,-10136,-2352,-99,29,1
0.01655876,-13080,2324,-10260,-2336,-138,149,1
0.01655876,-13032,2344,-10300,-2336,-537,11,1
0.01658363,-13252,2284,-10416,-2352,-401,397,1
0.01657115,-13144,2344,-10364,-2352,-124,81,1
0.01657115,-13148,2400,-10268,-2368,-387,106,1
0.01656856,-13280,2416,-10340,-2368,-266,285,1
0.01657097,-13048,2288,-10236,-2352,-184,154,1
0.01657097,-13192,2256,-10212,-2384,-328,342,1
0.0165794,-12916,2416,-10068,-2368,-196,245,1
0.01656988,-13220,2280,-10196,-2368,-18,232,1
0.0165696,-12908,2536,-10332,-2352,-241,333,1
0.0165696,-13284,2324,-10244,-2336,-110,107,1
0.01657422,-12900,2428,-10444,-2320,58,173,1
0.01656689,-13232,2448,-10096,-2368,157,181,1
0.01625516,-13124,2332,-10416,-2368,93,242,1
0.01656808,-13324,2268,-10392,-2368,111,276,1
0.01656887,-13244,2276,-10232,-2384,-119,137,1
0.01656887,-12980,2384,-10196,-2384,-157,342,1
0.01656827,-12896,2364,-10116,-2320,-110,233,1
0.01656887,-12912,2324,-10284,-2352,-138,237,1
0.01656887,-13236,2264,-10372,-2320,-182,221,1
0.01657189,-13100,2268,-10408,-2368,-106,218,1
0.01656536,-13012,2388,-10264,-2352,-154,398,1
0.01656758,-13032,2360,-10184,-2352,-72,71,1
0.01656758,-13176,2364,-10236,-2336,-118,167,1
0.01656819,-12924,2524,-10332,-2352,-258,75,1
0.01657039,-13312,2424,-10508,-2368,-264,189,1
0.01657039,-12932,2436,-10212,-2368,-26,151,1
0.01657153,-13124,2300,-10312,-2352,-219,38,1
0.01657087,-12852,2420,-10292,-2352,-148,247,1
0.01657058,-13256,2348,-10428,-2336,-147,213,1
0.01656688,-12964,2488,-10464,-2352,-177,161,1
0.0165714,-13172,2348,-10184,-2352,-156,151,1
0.01657049,-12980,2496,-10440,-2352,-83,212,1
0.01657091,-12876,2468,-10332,-2368,-65,334,1
0.01657091,-13116,2508,-10292,-2304,-187,122,1
0.01657216,-13000,2464,-10396,-2320,18,258,1
0.01656908,-12980,2536,-10364,-2352,78,161,1
0.01656908,-13032,2504,-10436,-2352,54,323,1
0.01657044,-13056,2452,-10220,-2352,109,324,1
0.01657033,-12856,2464,-10284,-2352,-4,155,1
0.01656901,-12824,2588,-10192,-2336,-196,215,1
0.01657279,-12844,2508,-10348,-2352,-51,229,1
0.01657002,-13200,2456,-10312,-2352,-81,230,1
0.01657269,-13100,2412,-10372,-2368,-96,212,1
0.01657269,-13208,2416,-10316,-2320,-117,221,1
0.01657114,-12984,2328,-10160,-2320,-47,295,1
0.01656859,-13116,2400,-10232,-2352,-106,169,1
0.01656859,-13100,2396,-10180,-2336,-190,152,1
0.01657087,-13148,2476,-10320,-2336,-277,111,1
0.01656965,-13108,2404,-10536,-2320,-282,230,1
0.01657166,-12856,2452,-10252,-2352,-25,168,1
0.01657025,-12812,2572,-10324,-2352,-218,8,1
0.01656965,-13096,2464,-10324,-2336,-197,257,1
0.01656984,-12852,2472,-10432,-2336,-93,209,1
0.01656984,-12912,2504,-10260,-2336,-119,141,1
0.01656939,-12840,2496,-10416,-2320,-147,215,1
0.01657254,-13080,2456,-10352,-2336,-125,260,1
0.01657254,-13216,2456,-10216,-2320,-15,322,1
0.01656924,-13076,2448,-10308,-2352,-262,47,1
0.01657179,-13156,2416,-10348,-2352,-46,247,1
0.01657229,-12836,2516,-10460,-2320,10,130,1
0.01657229,-12708,2568,-10392,-2352,138,201,1
0.0165676,-13096,2456,-10320,-2304,33,548,1
0.01656389,-12988,2564,-10192,-2336,-5,195,1
0.01656389,-13304,2540,-10524,-2368,-97,199,1
0.03314772,-13104,2452,-10320,-2320,67,248,1
0.01656817,-13160,2420,-10292,-2336,42,206,1
0.01656938,-13012,2472,-10604,-2320,-83,203,1
0.01656938,-12872,2468,-10412,-2368,2,183,1
0.01656936,-12848,2452,-10468,-2320,-108,98,1
0.0165697,-12980,2524,-10360,-2320,-70,356,1
0.01656905,-13044,2436,-10260,-2336,-105,148,1
0.01656905,-12920,2560,-10328,-2320,-292,176,1
0.01657009,-13180,2352,-10504,-2320,-306,110,1
0.01656991,-13248,2448,-10476,-2352,-253,199,1
0.01657342,-13112,2432,-10504,-2304,-133,49,1
0.0165692,-13012,2572,-10472,-2320,-257,87,1
0.01657048,-12856,2528,-10384,-2336,-222,276,1
0.01656679,-13200,2448,-10432,-2352,-184,211,1
0.01657079,-13160,2472,-10412,-2336,-297,167,1
0.01657396,-12888,2544,-10372,-2368,-268,237,1
0.01657116,-12884,2548,-10516,-2304,-220,281,1
0.01657116,-12804,2680,-10380,-2336,-261,286,1
0.01657101,-12972,2592,-10580,-2304,-226,-42,1
0.01643166,-13076,2520,-10512,-2304,-39,352,1
0.01657633,-12856,2552,-10488,-2320,56,257,1
0.01657633,-12760,2560,-10516,-2304,94,297,1
0.01656708,-12992,2416,-10416,-2288,83,375,1
0.01657112,-13052,2556,-10516,-2320,-45,219,1
0.01657091,-12980,2588,-10396,-2320,-230,356,1
0.01657091,-12944,2508,-10516,-2352,-110,242,1
0.01656863,-12972,2672,-10436,-2336,-158,220,1
0.01657025,-12960,2700,-10360,-2336,-236,246,1
0.01657025,-13048,2456,-10464,-2336,-166,265,1
0.01656811,-12704,2708,-10612,-2368,-143,234,1
0.01657001,-12952,2672,-10516,-2336,-132,138,1
0.01657001,-12676,2652,-10412,-2304,-127,285,1
0.01656823,-12680,2436,-10424,-2352,-178,243,1
0.01657065,-12748,2668,-10496,-2288,-741,212,1
0.01657065,-12796,2784,-10612,-2304,-802,190,1
0.01638506,-13084,2776,-10632,-2336,-392,386,1
0.01668157,-12912,2720,-10428,-2320,-253,414,1
0.01657006,-12620,2984,-10568,-2320,-299,401,1
0.01657006,-12816,2764,-10556,-2304,-97,386,1
0.01656805,-12724,2620,-10472,-2320,-36,376,1
0.01657014,-12992,2608,-10548,-2336,-71,221,1
0.01657154,-12880,2756,-10496,-2304,-14,222,1
0.01657154,-13000,2612,-10532,-2320,68,251,1
0.0165694,-12688,2656,-10352,-2320,-78,363,1
0.01657119,-12940,2668,-10508,-2320,-174,26,1
0.01656898,-12612,2728,-10700,-2320,-11,222,1
0.01656898,-12700,2828,-10732,-2304,12,117,1
0.01657118,-13004,2676,-10488,-2352,113,116,1
0.01657074,-12760,2708,-10448,-2320,141,309,1
0.01656942,-13036,2548,-10576,-2320,26,192,1
0.01656815,-12856,2632,-10584,-2320,-213,220,1
0.01657141,-12932,2668,-10608,-2320,-66,214,1
0.01595648,-13016,2712,-10564,-2320,-1,226,1
0.01656961,-12812,2664,-10576,-2304,-109,178,1
0.01656977,-12692,2668,-10464,-2336,-15,292,1
0.01656978,-12748,2632,-10644,-2304,-102,200,1
0.0165733,-12648,2640,-10568,-2320,-10,235,1
0.0165733,-12800,2632,-10584,-2352,-149,71,1
0.01657537,-12760,2736,-10768,-2304,-94,210,1
0.01647835,-12684,2672,-10432,-2272,-17,340,1
0.01647835,-12592,2664,-10344,-2336,-131,213,1
0.01654762,-12464,2772,-10824,-2320,-292,94,1
0.01657197,-13028,2696,-10516,-2320,-188,163,1
0.01657087,-12996,2604,-10624,-2304,-107,129,1
0.01657087,-12920,2560,-10624,-2304,-49,12,1
0.01657071,-12976,2624,-10624,-2320,-153,127,1
0.01657075,-12964,2576,-10560,-2304,-96,228,1
0.03313991,-12748,2720,-10596,-2320,-135,142,1
0.01657423,-12748,2708,-10640,-2320,-75,173,1
0.01656537,-12916,2656,-10424,-2320,-83,192,1
0.01656537,-12788,2648,-10636,-2304,-72,213,1
0.01657636,-12728,2684,-10608,-2288,-46,189,1
0.01657242,-12892,2616,-10628,-2304,-63,149,1
0.01656973,-12964,2568,-10640,-2320,16,159,1
0.01657082,-13048,2640,-10744,-2288,15,13,1
0.01657082,-12984,2644,-10584,-2320,233,167,1
0.01657074,-12600,2652,-10524,-2304,190,177,1
0.01657074,-12812,2756,-10512,-2320,-128,92,1
0.01657108,-12676,2624,-10504,-2304,-125,245,1
0.03315327,-12860,2588,-10732,-2288,-51,233,1
0.01657269,-12656,2636,-10532,-2288,-100,143,1
0.01657015,-12808,2528,-10580,-2288,-79,211,1
0.01656987,-12880,2616,-10564,-2320,-104,264,1
0.01656981,-12708,2684,-10464,-2320,-129,196,1
0.01657184,-12988,2600,-10500,-2304,-31,180,1
0.01657333,-12656,2700,-10576,-2304,-96,197,1
0.04972081,-12732,2684,-10648,-2304,-76,151,1
0.01656877,-12972,2576,-10604,-2336,32,158,1
0.01657054,-12992,2412,-10468,-2320,-95,180,1
0.01657227,-12828,2572,-10732,-2288,-242,152,1
0.01657172,-12648,2704,-10620,-2304,-259,4,1
0.01657048,-13008,2472,-10608,-2288,-109,191,1
0.01638062,-12680,2676,-10572,-2288,-58,-64,1
0.01657054,-12880,2784,-10408,-2288,-167,6,1
0.01657054,-12908,2580,-10604,-2288,-159,223,1
0.01648027,-13068,2568,-10648,-2288,-105,113,1
0.01657475,-12944,2560,-10496,-2272,-98,131,1
0.01657418,-12876,2616,-10576,-2304,-61,184,1
0.01656976,-12612,2696,-10504,-2304,-57,200,1
0.01666174,-12980,2560,-10440,-2288,-34,264,1
0.01656809,-12720,2632,-10640,-2288,-185,88,0
0.01657505,-12716,2672,-10572,-2304,-28,261,0
0.01656979,-12676,2664,-10656,-2320,9,98,0
0.01657383,-12572,2752,-10624,-2336,107,82,0
0.01657383,-12548,2604,-10472,-2304,185,176,0
0.0165718,-12848,2660,-10520,-2320,58,145,0
0.01657003,-12636,2724,-10568,-2320,-210,165,0
0.0165688,-12680,2672,-10632,-2304,-94,261,0
0.01657146,-13016,2508,-10520,-2304,-21,230,0
0.0165732,-12988,2520,-10688,-2320,-105,125,0
0.01657266,-12832,2588,-10524,-2320,-35,185,0
0.01657079,-12976,2516,-10660,-2320,-128,209,0
0.01657197,-13048,2644,-10604,-2288,-91,238,0
0.01657112,-12748,2656,-10668,-2288,-122,194,0
0.01656488,-12660,2764,-10740,-2288,-112,239,0
0.01656488,-12888,2624,-10632,-2288,-9,159,0
0.0165726,-12868,2552,-10736,-2256,0,141,0
0.01656887,-13016,2544,-10644,-2304,2,199,0
0.0165711,-12980,2500,-10540,-2320,-65,206,0
0.01657077,-12876,2520,-10420,-2272,-151,147,0
0.01657077,-12860,2684,-10620,-2288,-279,-14,0
0.01656992,-12932,2496,-10556,-2288,-168,176,0
0.01657369,-13136,2580,-10516,-2272,-133,22,0
0.01657265,-12604,2688,-10596,-2320,-162,-45,0
0.01657411,-12644,2760,-10548,-2320,-147,214,0
0.01656109,-12812,2688,-10604,-2320,-100,116,0
0.01656109,-12700,2576,-10352,-2304,-124,129,0
0.016574,-13016,2640,-10472,-2288,-86,246,0
0.0166648,-12808,2576,-10612,-2288,7,226,0
0.0166648,-13016,2536,-10572,-2288,102,319,0
0.01657341,-12896,2484,-10556,-2272,-6,404,0
0.01657129,-12984,2544,-10608,-2304,-156,-83,0
0.01657349,-12744,2612,-10604,-2288,58,185,0
0.01657131,-12804,2696,-10768,-2320,220,66,0
0.01656913,-12968,2368,-10544,-2304,250,109,0
0.01656913,-13036,2416,-10636,-2288,283,182,0
0.03206854,-12948,2520,-10652,-2272,-68,56,0
0.01657283,-12932,2568,-10544,-2320,-294,157,0
0.01657283,-13004,2384,-10688,-2320,-26,248,0
0.04971895,-12716,2612,-10540,-2304,-125,172,0
0.04971895,-13032,2436,-10420,-2288,-173,128,0
0.06628328,-13024,2456,-10632,-2272,-127,199,0
0.01657227,-12964,2548,-10568,-2288,-194,157,0
0.01657227,-12672,2616,-10620,-2272,-124,120,0
0.03314651,-12984,2488,-10560,-2304,-68,185,0
0.01657311,-12556,2736,-10616,-2288,-171,223,0
0.01657311,-12568,2644,-10568,-2304,-162,134,0
0.0165713,-12604,2620,-10616,-2304,-78,198,0
0.01657442,-13032,2448,-10628,-2304,-136,134,0
0.01657157,-12760,2600,-10660,-2288,-37,109,0
0.01657113,-12840,2624,-10548,-2272,-58,196,0
0.01657432,-12892,2472,-10572,-2288,-62,258,0
0.03314463,-12936,2492,-10708,-2288,-182,-62,0
0.03314463,-12612,2668,-10588,-2288,-83,148,0
0.01657137,-13076,2480,-10528,-2288,-34,110,0
0.01657255,-13104,2520,-10636,-2288,-62,-68,0
0.01657255,-12852,2512,-10476,-2288,-52,81,0
0.01657303,-12952,2404,-10540,-2304,-3,159,0
0.01657356,-12936,2384,-10648,-2304,-75,165,0
0.01657456,-12992,2364,-10664,-2288,-5,249,0
0.01657456,-13004,2512,-10696,-2320,58,215,0
0.01657112,-12832,2532,-10468,-2288,-23,156,0
0.03314019,-12956,2412,-10628,-2288,-41,296,0
0.01657175,-12980,2508,-10564,-2288,-50,85,0
0.01657149,-12820,2452,-10532,-2304,13,168,0
0.01657084,-12780,2508,-10576,-2288,131,98,0
0.01657084,-13048,2400,-10648,-2288,145,77,0
0.01657108,-13000,2320,-10416,-2256,201,204,0
0.0162917,-12572,2436,-10540,-2304,59,63,0
0.01657193,-12544,2592,-10528,-2304,-228,143,0
0.01657067,-12708,2468,-10800,-2288,-13,249,0
0.01657067,-12596,2536,-10560,-2288,-35,201,0
0.01657063,-12944,2412,-10608,-2304,-81,136,0
0.01657184,-12996,2272,-10500,-2288,-59,207,0
0.01657184,-12772,2432,-10540,-2288,-112,197,0
0.01657107,-12984,2232,-10516,-2272,-85,183,0
0.01657107,-12928,2384,-10656,-2288,-63,226,0
0.01657734,-12708,2420,-10624,-2272,-71,169,0
0.01656849,-12748,2516,-10596,-2288,-56,184,0
0.03314237,-12872,2320,-10760,-2256,-30,140,0
0.03314237,-12812,2476,-10664,-2256,-82,178,0
0.01656595,-12884,2308,-10504,-2288,-69,264,0
0.01657183,-13092,2336,-10600,-2256,-140,110,0
0.01662888,-12720,2480,-10680,-2304,-105,135,0
0.01662888,-12700,2408,-10588,-2288,-81,186,0
0.01656874,-12952,2300,-10688,-2272,-56,43,0
0.01657227,-12712,2404,-10552,-2240,-3,119,0
0.0165727,-12688,2360,-10312,-2288,29,257,0
0.01656992,-12808,2300,-10628,-2288,-10,122,0
0.01656992,-12968,2340,-10612,-2256,-46,-20,0
0.01657149,-12708,2260,-10696,-2272,-48,245,0
0.01657415,-13160,2212,-10536,-2272,11,161,0
0.01656942,-12996,2264,-10704,-2288,35,154,0
0.01657208,-13004,2288,-10636,-2272,76,128,0
0.01657287,-13108,2264,-10448,-2288,43,96,0
0.01657415,-13104,2264,-10460,-2272,63,84,0
0.01657415,-13060,2100,-10556,-2272,36,106,0
0.01656977,-12896,2220,-10564,-2272,-30,177,0
0.01656977,-13020,2248,-10664,-2272,-12,275,0
0.01657209,-13060,2132,-10588,-2272,90,221,0
0.01657179,-13080,2236,-10512,-2256,216,158,0
0.01657326,-13020,2164,-10604,-2288,352,-91,0
0.01657022,-13108,1992,-10784,-2288,291,118,0
0.01657022,-13144,1892,-10584,-2256,273,232,0
0.01657566,-12792,2248,-10552,-2256,372,136,0
0.01657358,-12636,2168,-10528,-2272,156,246,0
0.01657292,-12744,2048,-10804,-2304,-71,300,0
0.01657292,-12956,2052,-10644,-2288,105,336,0
0.01656974,-13064,2044,-10604,-2256,116,426,0
0.01657233,-12984,1904,-10596,-2288,71,542,0
0.01657233,-12924,1988,-10760,-2256,136,376,0
0.01656852,-13000,1872,-10612,-2272,62,325,0
0.01656852,-12708,2032,-10708,-2288,207,271,0
0.03314726,-13024,1892,-10664,-2272,79,430,0
0.01657198,-12516,2156,-10740,-2304,216,129,0
0.01656931,-12872,1960,-10692,-2272,114,245,0
0.01657601,-12992,1948,-10748,-2288,3,313,0
0.01657601,-12624,1976,-10648,-2272,-7,251,0
0.01657336,-12988,1900,-10568,-2288,86,310,0
0.01656984,-12828,1868,-10872,-2240,171,-5,0
0.01657202,-12544,1956,-10676,-2272,-68,213,0
0.01657206,-12776,1948,-10564,-2272,73,314,0
0.01656988,-12548,1892,-10548,-2272,260,298,0
0.01656874,-12912,1796,-10744,-2288,155,53,0
0.01657332,-13124,1824,-10792,-2256,-182,232,0
0.01657016,-12760,1904,-10552,-2304,-75,-113,0
0.01657297,-12892,1908,-10656,-2272,137,192,0
0.01656817,-12760,1788,-10760,-2240,234,-68,0
0.01657424,-12732,1816,-10840,-2288,-41,177,0
0.01657424,-13120,1716,-10732,-2256,-6,189,0
0.01657158,-12636,1932,-10684,-2288,-15,203,0
0.01657567,-13008,1804,-10696,-2240,-86,182,0
0.01657079,-13016,1760,-10788,-2304,112,148,0
0.01657286,-12616,1832,-10572,-2272,111,194,0
0.01657556,-13044,1720,-10780,-2288,69,94,0
0.01657088,-12828,1856,-10696,-2272,45,141,0
0.0165739,-12856,1736,-10724,-2272,117,46,0
0.01657132,-12688,1676,-10728,-2304,84,104,0
0.01657271,-12956,1628,-10632,-2256,18,125,0
0.01657271,-12572,1764,-10584,-2256,-25,68,0
0.01654336,-13056,1684,-10676,-2256,-80,154,0
0.01656602,-13016,1752,-10604,-2272,-85,208,0
0.01656749,-12760,1592,-10648,-2288,-270,-25,0
0.01656551,-13020,1712,-10740,-2272,23,547,0
0.01656464,-12840,1724,-10772,-2240,86,379,0
0.01656464,-12868,1564,-10848,-2256,-52,363,0
0.01656515,-12700,1828,-10760,-2224,-61,243,0
0.01656461,-13008,1660,-10816,-2240,-80,142,0
0.01656461,-12592,1732,-10724,-2288,-34,133,0
0.0165655,-12736,1712,-10696,-2288,-105,288,0
0.01656345,-12856,1680,-10824,-2256,-93,242,0
0.01656553,-12900,1700,-10800,-2272,-35,254,0
0.0165638,-12748,1688,-10800,-2288,-6,100,0
0.01656368,-12584,1788,-10660,-2272,-85,99,0
0.0331305,-12868,1668,-10736,-2288,-19,184,0
0.0331305,-12620,1772,-10660,-2288,9,241,0
0.01656768,-12444,1800,-10676,-2272,25,73,0
0.01656291,-12624,1708,-10888,-2256,-164,162,0
0.01656291,-13120,1612,-10740,-2288,-64,60,0
0.01656374,-12636,1692,-10684,-2272,89,236,0
0.01656256,-12884,1580,-10856,-2256,3,195,0
0.01656256,-13016,1492,-11012,-2272,-79,170,0
0.01656474,-12652,1628,-10564,-2240,-70,169,0
0.0331283,-12888,1700,-10764,-2256,-81,150,0
0.01656238,-12732,1696,-10836,-2256,-108,136,0
0.01656238,-12756,1604,-10820,-2272,-61,248,0
0.0165659,-12508,1648,-10640,-2272,-88,189,0
0.01516153,-13012,1492,-10844,-2240,-22,157,0
0.01656676,-12908,1544,-10528,-2240,26,104,0
0.01656676,-12840,1604,-10832,-2272,63,61,0
0.01656494,-12624,1536,-10828,-2272,-8,163,0
0.01656473,-12832,1744,-10832,-2240,-5,130,0
0.01656703,-12524,1688,-10752,-2240,-73,243,0
0.01656474,-12940,1572,-10852,-2272,-139,252,0
0.01656605,-12728,1676,-10784,-2240,-115,202,0
0.01656402,-12928,1572,-10776,-2256,-65,262,0
0.01656511,-12860,1560,-10836,-2240,-82,230,0
0.01656433,-12548,1580,-10824,-2272,-105,157,0
0.01656539,-12608,1696,-10852,-2272,-77,198,0
0.01656539,-12976,1544,-10772,-2240,-91,136,0
0.01656127,-12596,1588,-10604,-2240,-89,199,0
0.01656988,-12624,1684,-10964,-2256,-101,233,0
0.01656399,-12564,1680,-10800,-2272,-72,261,0
0.01656515,-12568,1744,-10732,-2224,-49,294,0
0.01656524,-12928,1688,-10936,-2272,-61,168,0
0.01656524,-12620,1652,-10776,-2256,-136,143,0
0.01656275,-12944,1496,-10724,-2272,-14,82,0
0.01656974,-12692,1596,-10808,-2240,6,209,0
0.01656385,-12756,1592,-10860,-2240,-177,17,0
0.01656385,-12596,1636,-10716,-2256,-158,80,0
0.03312801,-12760,1592,-10628,-2240,11,58,0
0.03313676,-12568,1736,-10952,-2240,-57,234,0
0.01656058,-12632,1576,-10888,-2256,-109,84,0
0.01656058,-12648,1528,-10828,-2240,-112,109,0
0.0165674,-12776,1656,-10760,-2256,-105,109,0
0.01656819,-13000,1596,-10692,-2208,-130,35,0
0.01656104,-12604,1644,-10716,-2256,-102,148,0
0.01656395,-13008,1600,-10852,-2224,-95,127,0
0.01656542,-12656,1692,-10868,-2256,-80,139,0
0.01647701,-12524,1636,-10804,-2240,-62,100,0
0.01647701,-12728,1616,-10808,-2272,6,60,0
0.01656169,-12984,1588,-10616,-2240,-41,54,0
0.01656633,-12948,1468,-10900,-2256,-34,98,0
0.01656633,-12700,1664,-10852,-2208,-59,106,0
0.01656507,-12720,1700,-10792,-2256,-122,71,0
0.01656678,-12844,1648,-10708,-2256,-125,125,0
0.01656625,-12728,1676,-10716,-2256,-93,124,0
0.01655945,-12624,1632,-10792,-2256,-120,147,0
0.0165657,-12552,1560,-10748,-2240,-125,92,0
0.01656216,-12828,1692,-10696,-2240,-116,88,0
0.01656531,-12668,1688,-10684,-2256,-135,53,0
0.01656405,-12896,1556,-10744,-2256,-152,138,0
0.01656485,-12964,1680,-10756,-2256,-104,158,0
0.01656485,-13008,1584,-10660,-2288,-71,201,0
0.01656805,-12572,1700,-10832,-2256,-87,130,0
0.01656635,-12680,1596,-10848,-2288,-155,86,0
0.01656437,-12656,1520,-10684,-2224,8,161,0
0.01656375,-13016,1624,-10576,-2224,19,151,0
0.01656375,-12628,1648,-10912,-2256,-105,147,0
0.01656567,-12624,1568,-10772,-2208,-166,89,0
0.01656567,-12956,1644,-10732,-2272,-20,-18,0
0.01656612,-12656,1764,-10820,-2240,-23,163,0
0.01656612,-13056,1568,-10792,-2240,-116,54,1
0.01656481,-12776,1556,-10660,-2256,-75,117,1
0.01656724,-12772,1708,-10760,-2256,-67,54,1
0.01656724,-13128,1568,-10768,-2240,-138,43,1
0.01656621,-12840,1588,-10584,-2224,-139,125,1
0.01656431,-12884,1608,-10696,-2176,-76,117,1
0.01656603,-12600,1716,-10776,-2224,-89,145,1
0.01655797,-12668,1656,-10592,-2224,-68,73,1
0.01656371,-12712,1736,-10768,-2240,-21,84,1
0.01656628,-13120,1608,-10644,-2224,-52,-45,1
0.01656628,-12880,1676,-10644,-2272,7,40,1
0.01656557,-13172,1608,-10664,-2240,-61,84,1
0.01656571,-13128,1672,-10764,-2256,-124,92,1
0.01656571,-12688,1608,-10592,-2256,-133,84,1
0.01656435,-13028,1604,-10656,-2224,-125,77,1
0.01656702,-12840,1680,-10608,-2224,-149,117,1
0.01656435,-12904,1576,-10720,-2240,-163,8,1
0.01656488,-12792,1556,-10576,-2208,-240,-113,1
0.01656418,-12676,1680,-10636,-2256,-283,-109,1
0.01656435,-13176,1504,-10608,-2272,-258,-35,1
0.01656435,-13084,1692,-10516,-2256,-195,-142,1
0.01656421,-12664,1708,-10680,-2224,-208,-196,1
0.01656592,-12868,1776,-10724,-2208,-367,-248,1
0.01656592,-13068,1580,-10580,-2240,-342,-295,1
0.01656383,-12808,1756,-10380,-2240,-129,-353,1
0.01656909,-13104,1736,-10464,-2224,-197,-99,1
0.01656065,-13144,1860,-10368,-2256,-392,-194,1
0.01656537,-12912,1728,-10388,-2256,-229,-322,1
0.01656235,-13104,1864,-10428,-2224,-129,-296,1
0.01656622,-12968,1836,-10548,-2208,-231,-256,1
0.01656583,-13036,1776,-10468,-2240,-135,-160,0
0.01656767,-13288,1736,-10204,-2224,-219,-143,0
0.01656767,-12912,1948,-10248,-2256,-279,-117,0
0.01656442,-13280,1736,-10284,-2240,-355,-94,0
0.01656405,-12940,2024,-10136,-2256,-319,-23,0
0.01656735,-13364,1880,-10188,-2240,-238,-88,0
0.01656605,-13244,1912,-10284,-2224,-198,-67,0
0.0165664,-12952,1948,-10260,-2240,-152,-52,0
0.01656506,-12996,1892,-10272,-2272,-172,-15,0
0.01656367,-13192,2012,-10052,-2256,-240,43,0
0.01656372,-13300,1784,-10264,-2192,-237,68,0
0.01656203,-12996,2032,-10132,-2240,-388,119,0
0.01656203,-13456,1972,-10328,-2272,-394,105,0
0.01656712,-13020,2120,-10232,-2208,-326,223,0
0.01657067,-13476,1988,-10028,-2224,-342,189,0
0.0165654,-13144,2100,-10028,-2256,-316,79,0
0.01656309,-13388,2116,-10228,-2224,-424,387,0
0.01656309,-13128,2204,-10116,-2240,-303,161,0
0.01656579,-13016,2136,-10208,-2272,-177,160,0
0.01656722,-13116,2176,-10380,-2224,-233,261,0
0.01656492,-13208,2212,-10100,-2224,-241,219,0
0.01656492,-12952,2148,-10156,-2240,-193,256,0
0.01656167,-13076,2156,-10084,-2192,-182,148,0
0.01656562,-13232,2160,-10452,-2224,-206,175,0
0.01656226,-13360,2280,-10204,-2240,-400,158,0
0.01656457,-13028,2172,-10252,-2256,-182,267,0
0.0165641,-12972,2344,-10184,-2240,-148,116,0
0.01702837,-12964,2284,-10336,-2224,-306,107,0
0.01655514,-13228,2164,-10324,-2224,-154,272,0
0.0165662,-13468,2180,-10136,-2192,-181,229,0
0.0165662,-13164,2300,-10276,-2224,-225,283,0
0.01656383,-13260,2268,-10132,-2240,-218,292,0
0.01656705,-12964,2308,-10104,-2256,-51,274,0
0.01656805,-13144,2256,-10152,-2256,-253,258,0
0.01656411,-13288,2312,-10316,-2224,-53,231,0
0.01656411,-13392,2216,-10320,-2224,56,104,0
0.01703717,-13340,2248,-10284,-2224,130,168,0
0.01656282,-12968,2392,-10220,-2208,55,348,0
0.01656282,-12884,2328,-10372,-2208,44,259,0
0.01656429,-13324,2292,-10300,-2240,-152,187,0
0.0165663,-12984,2476,-10260,-2192,-248,329,0
0.0165663,-13304,2316,-10332,-2240,-170,460,0
0.01649622,-12904,2352,-10392,-2240,-183,300,0
0.01663475,-12992,2404,-10320,-2208,-162,342,0
0.01663475,-12892,2224,-10308,-2256,-75,275,0
0.01656511,-13244,2272,-10312,-2256,-119,309,0
0.01664838,-13140,2288,-10152,-2224,-89,311,0
0.01656686,-12816,2360,-10156,-2208,-99,196,0
0.01656359,-13144,2288,-10352,-2224,-230,122,0
0.01656589,-13052,2388,-10328,-2256,-384,135,0
0.01656677,-12872,2332,-10276,-2224,-228,341,0
0.01656641,-13188,2448,-10344,-2208,-77,95,0
0.01656542,-13188,2392,-10332,-2224,-291,202,0
0.01656451,-13212,2284,-10292,-2192,-201,376,0
0.0165651,-13348,2312,-10264,-2208,-203,229,0
0.01656614,-13252,2352,-10292,-2224,-188,260,0
0.01656479,-13048,2396,-10204,-2208,-189,229,0
0.01656479,-13080,2404,-10320,-2224,-12,246,0
0.01656732,-12880,2428,-10288,-2240,-181,219,0
0.0165583,-12836,2564,-10244,-2224,-179,145,0
0.01656044,-13248,2312,-10336,-2208,30,139,0
0.01656044,-12908,2484,-10360,-2240,121,78,0
0.0165602,-13100,2420,-10232,-2240,100,320,0
0.0165602,-13148,2296,-10352,-2240,101,216,0
0.01656257,-12952,2348,-10304,-2224,-147,132,0
0.01643274,-13120,2480,-10348,-2224,-245,339,0
0.01643274,-12864,2500,-10436,-2256,-97,176,0
0.01656903,-13084,2456,-10284,-2208,-159,297,0
0.01656383,-13252,2356,-10456,-2240,-208,224,0
0.01656383,-12960,2416,-10560,-2224,-257,460,0
0.01656367,-12880,2376,-10264,-2208,-145,508,0
0.01656837,-12904,2356,-10408,-2208,-204,125,0
0.01656717,-12776,2516,-10344,-2192,-295,113,0
0.01656975,-13184,2404,-10284,-2224,-443,296,0
0.01656975,-12784,2572,-10460,-2272,-271,248,0
0.01694551,-12864,2524,-10460,-2208,-190,153,0
0.01656144,-12988,2524,-10396,-2224,-376,172,0
0.01656144,-12920,2576,-10416,-2208,-218,297,0
0.01656946,-13160,2428,-10420,-2240,-182,200,0
0.01656946,-13260,2484,-10172,-2240,-192,158,0
0.01657144,-13140,2524,-10284,-2224,-163,296,1
0.01656864,-13112,2480,-10324,-2240,-36,254,1
0.01656758,-12652,2568,-10400,-2208,-187,217,1
0.0165713,-13224,2548,-10316,-2208,-92,209,1
0.01657034,-12748,2572,-10476,-2224,43,231,1
0.01656955,-12840,2556,-10480,-2192,154,227,1
0.01656998,-12784,2580,-10356,-2256,17,594,1
0.01657091,-12868,2568,-10128,-2240,120,221,1
0.01657016,-13156,2596,-10236,-2192,-299,159,1
0.01657016,-13040,2560,-10376,-2208,-190,351,1
0.01656857,-12904,2664,-10416,-2192,-38,280,1
0.01656939,-12900,2632,-10488,-2192,-124,206,1
0.01656939,-12712,2584,-10432,-2208,-66,257,1
0.01657102,-12720,2500,-10280,-2224,-26,373,1
0.01656982,-13164,2364,-10388,-2208,-64,146,1
0.01656982,-13056,2544,-10524,-2224,-249,138,1
0.01656847,-12940,2524,-10568,-2224,-246,113,1
0.01656899,-12928,2652,-10444,-2192,-247,206,1
0.01657035,-13084,2520,-10556,-2192,-62,104,1
0.01656667,-13056,2612,-10604,-2224,-187,107,1
0.01656966,-12788,2504,-10624,-2256,-216,271,1
0.01656633,-13076,2464,-10432,-2208,-131,174,1
0.01656709,-13164,2456,-10524,-2224,-130,248,1
0.01656716,-12952,2488,-10464,-2192,-25,273,1
0.01656716,-13072,2596,-10464,-2192,-15,242,1
0.01656915,-12732,2680,-10416,-2208,-48,315,1
0.0165725,-12796,2640,-10576,-2208,-171,102,1
0.01656711,-12732,2560,-10608,-2224,15,235,1
0.01656869,-12992,2660,-10560,-2224,85,189,1
0.01657098,-12680,2600,-10460,-2192,206,317,1
0.01657098,-12708,2508,-10380,-2192,188,295,1
0.01656767,-12732,2524,-10452,-2192,-95,122,1
0.01656893,-12732,2692,-10592,-2192,-206,312,1
0.0165689,-13116,2460,-10392,-2208,-19,265,1
0.0165689,-12824,2696,-10456,-2208,-141,222,1
0.01656785,-13096,2496,-10556,-2176,-89,277,1
0.01656899,-12716,2616,-10660,-2224,-87,236,1
0.01656891,-12744,2444,-10472,-2208,-59,152,1
0.01656891,-12676,2648,-10416,-2224,9,400,1
0.01656865,-12704,2520,-10268,-2192,-137,197,1
0.01656865,-12524,2732,-10524,-2208,-314,103,1
0.01656865,-12704,2712,-10604,-2224,-219,120,1
0.01656937,-12964,2552,-10476,-2192,-140,219,1
0.01656937,-12996,2608,-10656,-2176,-40,19,1
0.01656471,-13012,2592,-10732,-2192,-182,105,1
0.01657065,-12760,2552,-10456,-2224,-111,194,1
0.01656755,-12692,2688,-10560,-2192,-128,120,1
0.01666265,-12832,2608,-10464,-2192,-60,144,1
0.01656779,-13024,2412,-10600,-2208,-63,182,1
0.01656779,-12684,2812,-10492,-2224,-75,214,1
0.01656573,-12836,2632,-10452,-2208,-56,285,1
0.01657179,-12644,2688,-10716,-2192,-106,64,1
0.0165704,-12680,2664,-10596,-2176,18,184,1
0.0165722,-12984,2524,-10588,-2192,49,100,1
0.01657031,-12892,2496,-10360,-2208,206,167,1
0.01657031,-12816,2556,-10540,-2192,141,198,1
0.01656893,-12624,2512,-10620,-2208,-160,106,1
0.01656921,-12824,2628,-10508,-2224,-173,235,1
0.01656921,-12808,2540,-10588,-2176,19,226,1
0.01656652,-12860,2456,-10560,-2192,-112,216,1
0.01656735,-12880,2608,-10604,-2176,-105,215,1
0.01657089,-12724,2544,-10492,-2192,-44,271,1
0.01656755,-13012,2536,-10592,-2192,-83,151,1
0.01656955,-12756,2556,-10576,-2192,-41,122,1
0.01656955,-12540,2620,-10368,-2224,-2,270,1
0.01656928,-12720,2632,-10464,-2176,-157,238,1
0.01656652,-12792,2588,-10652,-2176,-272,47,1
0.01657075,-12700,2588,-10556,-2208,-201,159,1
0.01657075,-12760,2508,-10508,-2192,-150,151,1
0.01656706,-12984,2452,-10644,-2160,-88,-8,1
0.01656656,-13084,2480,-10556,-2176,-122,96,1
0.01656746,-13068,2512,-10572,-2208,-117,266,1
0.01657378,-13168,2584,-10596,-2208,-115,155,1
0.01656844,-12752,2568,-10560,-2208,-94,211,1
0.01656866,-12840,2484,-10408,-2192,-56,239,1
0.01656866,-12692,2592,-10584,-2192,-6,204,1
0.01656188,-12784,2608,-10464,-2208,-116,280,1
0.01656859,-12600,2608,-10508,-2208,-99,139,1
0.01656775,-12860,2536,-10664,-2208,33,227,1
0.01656775,-12680,2600,-10668,-2176,142,47,1
0.01656942,-12888,2416,-10492,-2176,261,171,1
0.01656938,-12644,2540,-10664,-2208,245,251,1
0.01656725,-12612,2680,-10368,-2192,-91,57,1
0.01657112,-13216,2448,-10720,-2160,-248,228,1
0.0165686,-13148,2356,-10640,-2208,57,283,1
0.0165686,-13020,2500,-10532,-2192,-23,170,1
0.01656717,-12844,2412,-10460,-2192,-141,202,1
0.01656604,-13036,2416,-10560,-2176,-61,278,1
0.01633481,-12904,2412,-10428,-2176,-142,224,1
0.01633481,-13040,2480,-10624,-2192,-96,157,1
0.04994429,-12908,2444,-10536,-2208,-41,210,1
0.01656867,-12740,2560,-10584,-2192,-132,125,1
0.01656867,-12676,2620,-10424,-2176,-34,69,1
0.01657223,-12928,2292,-10536,-2208,50,232,1
0.01656926,-12812,2472,-10308,-2192,-96,251,1
0.01656765,-12744,2572,-10668,-2208,-226,-54,1
0.0165703,-13096,2424,-10596,-2160,-38,246,1
0.01656826,-12752,2440,-10604,-2192,-20,64,1
0.01656836,-12928,2416,-10568,-2192,-170,-100,1
0.0165674,-12984,2564,-10568,-2192,-63,96,1
0.01656782,-12900,2528,-10516,-2176,34,226,1
0.01656886,-12888,2408,-10424,-2176,26,166,1
0.01656376,-12920,2388,-10548,-2192,-48,173,1
0.01656376,-12756,2484,-10472,-2192,11,187,1
0.01656936,-13108,2336,-10496,-2192,-78,217,1
0.01656995,-12620,2388,-10596,-2176,-158,255,1
0.01656995,-12692,2448,-10552,-2208,-120,78,1
0.01657079,-13012,2304,-10520,-2176,2,107,1
0.01658521,-13104,2392,-10760,-2160,184,0,1
0.01658521,-12644,2496,-10520,-2160,156,61,1
0.01658039,-12712,2368,-10528,-2160,260,118,1
0.01658381,-13152,2328,-10416,-2176,10,77,1
0.01658127,-13116,2384,-10656,-2160,-214,116,1
0.01658127,-13128,2300,-10708,-2192,-48,303,1
0.01657942,-13096,2224,-10580,-2208,-82,192,1
0.01658125,-12808,2336,-10448,-2192,-162,87,1
0.01658129,-12732,2324,-10616,-2160,-68,128,1
0.01658129,-12896,2340,-10492,-2192,-59,104,1
0.01657793,-12728,2356,-10364,-2160,-5,-40,1
0.01658371,-13028,2128,-10612,-2176,-82,133,1
0.01658371,-12900,2332,-10436,-2176,-118,150,1
0.01658058,-13036,2344,-10480,-2208,-192,30,1
0.01658138,-12860,2384,-10436,-2192,-16,45,1
0.01658335,-13080,2356,-10516,-2176,-110,52,1
0.01657883,-12804,2376,-10560,-2208,-53,-85,1
0.01657883,-12704,2196,-10580,-2160,-65,7,1
0.01658052,-12732,2400,-10056,-2224,25,194,1
0.01607038,-13060,2332,-10524,-2192,-68,-8,1
0.01607038,-12704,2384,-10504,-2160,50,-111,1
0.01658077,-13188,2260,-10464,-2144,61,-12,1
0.0165373,-13124,2284,-10604,-2192,102,-38,1
0.01656812,-13232,2160,-10500,-2208,16,94,1
0.0165717,-12780,2264,-10448,-2192,11,166,1
0.01657078,-12924,2280,-10352,-2192,4,117,1
0.01656502,-12976,2268,-10400,-2128,100,19,1
0.01657119,-12832,2284,-10324,-2176,76,-20,1
0.01656904,-13188,2144,-10276,-2192,198,10,1
0.01656904,-13184,2092,-10388,-2176,7,211,1
0.01657211,-13020,2232,-10412,-2192,85,148,1
0.01657269,-13184,2168,-10468,-2176,74,78,1
0.01656684,-13240,2092,-10444,-2176,81,189,0
0.01627992,-12784,2196,-10424,-2160,156,32,0
0.01656942,-13212,2068,-10456,-2176,116,132,0
0.01656979,-13144,1984,-10384,-2192,144,48,0
0.01656979,-12840,2184,-10464,-2192,-8,199,0
0.01656976,-12840,2236,-10564,-2176,-93,259,0
0.01657056,-12820,2292,-10348,-2176,-65,239,0
0.01657012,-13148,1964,-10320,-2192,-102,94,0
0.0165713,-13048,1984,-10512,-2144,-14,50,0
0.01656684,-12908,2072,-10304,-2208,-2,155,0
0.01656599,-12956,2148,-10412,-2160,-31,285,0
0.01656599,-13084,2184,-10396,-2160,90,267,0
0.01657016,-13188,1988,-10292,-2192,9,266,0
0.01657151,-12884,2096,-10404,-2192,53,211,0
0.01657151,-12944,2176,-10568,-2192,10,187,0
0.0165699,-12944,2064,-10356,-2208,-16,235,0
0.01657049,-13004,1932,-10372,-2176,18,180,0
0.01656582,-13056,2004,-10236,-2192,67,227,0
0.01656582,-12944,1964,-10568,-2176,71,208,0
0.01657273,-13204,1932,-10384,-2144,27,73,0
0.01656782,-13132,1836,-10448,-2144,105,95,0
0.01657207,-12884,1904,-10348,-2160,150,248,0
0.01657213,-13244,1708,-10460,-2176,211,-86,0
0.01657049,-12936,1936,-10404,-2144,-37,23,0
0.01657049,-13160,1864,-10248,-2176,-69,-85,0
0.01657024,-12876,1940,-10320,-2176,124,78,0
0.01657149,-13108,1908,-10380,-2192,12,124,0
0.0165699,-12944,1848,-10460,-2176,24,145,0
0.0165699,-12916,1804,-10356,-2160,-37,108,0
0.01656878,-13084,1900,-10472,-2160,-59,132,0
0.01656942,-12996,1816,-10564,-2160,-79,86,0
0.01656942,-13116,1976,-10428,-2176,-36,164,0
0.01657019,-12928,1800,-10436,-2176,-27,204,0
0.01656827,-13280,1796,-10408,-2176,55,125,0
0.01656827,-12972,1776,-10412,-2160,54,119,0
0.03314404,-13044,1880,-10524,-2192,60,75,0
0.01656995,-13100,1716,-10500,-2176,-20,29,0
0.01656995,-13228,1760,-10472,-2160,0,105,0
0.01656928,-12904,1828,-10352,-2160,-11,113,0
0.016569,-12880,1832,-10368,-2176,-131,130,0
0.0165676,-13000,1880,-10220,-2192,-139,152,0
0.01656927,-12948,1856,-10192,-2144,-67,243,0
0.01657004,-12872,1792,-10524,-2160,-34,187,0
0.01656665,-13224,1740,-10360,-2160,-55,173,0
0.01656665,-12924,1876,-10124,-2160,-24,238,0
0.01657114,-13112,1748,-10464,-2176,84,254,0
0.01657025,-12936,1868,-10500,-2176,9,138,0
0.01657149,-13100,1852,-10288,-2176,112,133,0
0.01657237,-13244,1760,-10332,-2176,-9,206,0
0.01656975,-12880,1792,-10384,-2176,-47,209,0
0.01657245,-12828,1872,-10360,-2128,-81,73,0
0.01657245,-13208,1796,-10464,-2144,70,99,0
0.033138,-12980,1684,-10564,-2176,-11,124,0
0.0165663,-13280,1656,-10336,-2160,-99,149,0
0.01656724,-13304,1740,-10308,-2160,3,192,0
0.01668707,-13180,1644,-10444,-2160,83,262,0
0.01657405,-13324,1820,-10584,-2176,-7,55,0
0.01656955,-13296,1776,-10336,-2160,-134,81,0
0.01656955,-12868,1796,-10252,-2160,-8,86,0
0.01656547,-13248,1756,-10348,-2192,13,105,0
0.01657006,-13260,1604,-10408,-2128,-93,173,0
0.01657006,-13208,1700,-10416,-2160,-42,196,0
0.01657051,-12884,1688,-10384,-2144,-35,198,0
0.01656944,-13272,1712,-10368,-2144,-100,181,0
0.01656997,-13116,1676,-10536,-2176,-20,223,0
0.01656987,-13092,1680,-10308,-2144,-27,143,0
0.01656682,-12968,1716,-10404,-2112,-19,166,0
0.01657049,-13136,1664,-10404,-2160,-50,140,0
0.01656866,-13268,1692,-10392,-2160,14,124,0
0.01656866,-13244,1576,-10336,-2160,-94,53,0
0.01656875,-13132,1600,-10272,-2160,-17,102,0
0.01657093,-13044,1708,-10376,-2128,-55,126,0
0.01656877,-12928,1844,-10428,-2160,-129,113,0
0.01657078,-12908,1752,-10300,-2176,-96,194,0
0.01657238,-12988,1764,-10372,-2160,-106,228,0
0.01656938,-13140,1740,-10260,-2160,-77,193,0
0.01657156,-13060,1764,-10260,-2160,-106,144,0
0.01657846,-12932,1648,-10320,-2144,-113,174,0
0.01657846,-13232,1728,-10548,-2160,-118,195,0
0.01657647,-13336,1684,-10384,-2144,-97,133,0
0.01657647,-13272,1712,-10340,-2192,-120,166,0
0.01657872,-13180,1724,-10340,-2160,-116,185,0
0.01657493,-13376,1716,-10320,-2160,-80,143,0
0.01657108,-13344,1752,-10160,-2144,-65,206,0
0.01657785,-13308,1672,-10360,-2144,-130,106,0
0.01657867,-12956,1712,-10196,-2176,-117,174,0
0.01657867,-12900,1708,-10216,-2160,11,188,0
0.01657903,-12940,1768,-10468,-2160,-47,181,0
0.01657748,-12936,1708,-10484,-2160,-172,98,0
0.01657865,-13256,1664,-10396,-2160,-112,151,0
0.01657608,-13304,1756,-10160,-2144,-33,159,0
0.01657909,-12892,1712,-10320,-2144,-168,167,0
0.01658107,-13064,1600,-10344,-2160,-167,183,0
0.01658107,-13344,1556,-10332,-2144,-200,153,0
0.01679547,-13392,1648,-10344,-2128,-228,140,0
0.01657471,-13088,1828,-10340,-2160,-254,91,0
0.01657742,-12984,1840,-10420,-2144,-202,94,0
0.01657858,-13308,1804,-10304,-2144,-269,30,0
0.01657858,-13196,1796,-10308,-2176,-268,-29,0
0.01657738,-13372,1648,-10320,-2144,-205,72,0
0.01657912,-13028,1768,-10312,-2144,-190,55,0
0.01657796,-13120,1820,-10244,-2160,-226,119,0
0.01657796,-13372,1780,-10128,-2160,-107,167,0
0.01657693,-12928,1892,-10196,-2144,-119,186,0
0.0165792,-12972,1964,-10364,-2144,-192,118,0
0.0165792,-13340,1800,-10284,-2176,-173,87,0
0.01680489,-13268,1872,-10268,-2128,-180,192,0
0.01658053,-13404,1952,-10160,-2160,-223,165,0
0.01658053,-13256,1780,-10220,-2144,-211,118,0
0.01658915,-13184,1860,-10248,-2160,-187,133,0
0.01657348,-13032,1896,-10272,-2160,-188,198,0
0.01657839,-13264,1816,-10252,-2144,-191,154,0
0.01657839,-13348,1756,-10464,-2144,-89,131,0
0.01657505,-13004,1944,-10424,-2160,-192,3,0
0.01657852,-13284,1908,-10084,-2144,-313,119,0
0.01657529,-13176,1920,-10196,-2144,-148,121,0
0.01658369,-13332,1848,-9936,-2160,-48,155,0
0.01657674,-13008,2056,-10372,-2144,-267,3,0
0.01657674,-13312,1908,-10300,-2176,-424,150,0
0.01657064,-13384,1912,-10188,-2160,-233,65,0
0.01654072,-13024,2100,-10300,-2128,-192,42,0
0.01656817,-12956,2184,-10308,-2144,-387,207,0
0.01656963,-13064,2016,-10076,-2160,-268,212,0
0.01656963,-13332,2104,-10224,-2128,-236,156,0
0.01657063,-13216,2180,-10200,-2144,-272,197,0
0.01657172,-12900,2212,-10316,-2128,-208,225,0
0.01656954,-13316,1968,-10072,-2160,-93,332,0
0.01656713,-13188,2004,-10208,-2192,-169,96,0
0.01657052,-13076,2080,-10360,-2144,-29,92,0
0.01657052,-13020,2164,-10368,-2160,33,73,0
0.01657062,-13364,1976,-10344,-2176,34,195,0
0.01657053,-13196,1968,-10144,-2160,24,229,0
0.01656929,-12992,2184,-10240,-2128,-8,207,0
0.01657124,-12952,2144,-10292,-2128,-206,107,0
0.01657107,-13048,2108,-10320,-2160,-96,244,0
0.01657132,-13040,2152,-10200,-2144,-133,244,0
0.01657003,-13324,2052,-10224,-2160,-268,274,0
0.01656896,-13232,2068,-10176,-2144,-214,254,0
0.01657077,-13296,2092,-10300,-2128,-56,277,0
0.01657077,-13148,2320,-10164,-2160,-96,145,0
0.01656982,-13320,1976,-10152,-2144,-161,199,0
0.01656952,-13144,2004,-10332,-2128,-133,196,0
0.01656952,-13040,2140,-10112,-2128,-113,205,0
0.01656711,-12976,2308,-10340,-2112,-239,59,0
0.01657142,-13144,2220,-10196,-2160,-367,224,0
0.01656978,-13308,2124,-10436,-2128,-225,391,0
0.01656978,-13124,2092,-10200,-2160,-157,93,0
0.01657062,-13268,2308,-10420,-2144,-259,216,0
0.01656937,-13072,2236,-10272,-2144,-75,267,0
0.01656937,-13292,2132,-10392,-2128,-91,201,0
0.01657019,-12972,2208,-10348,-2112,-117,219,0
0.01657036,-13004,2244,-10300,-2160,-122,239,0
0.01656953,-12916,2312,-10172,-2160,4,336,0
0.01656953,-12908,2364,-10472,-2160,-192,143,0
0.01657293,-12916,2288,-10212,-2144,39,281,0
0.01656818,-13268,2080,-10360,-2144,132,118,0
0.01656961,-12856,2276,-10416,-2144,137,200,0
0.01657153,-12964,2200,-10244,-2160,106,278,0
0.01657171,-13032,2296,-10312,-2144,49,254,0
0.01657086,-13228,2092,-10184,-2144,-197,148,0
0.01608511,-13128,2248,-10336,-2128,-146,283,0
0.01608511,-13080,2144,-10208,-2112,-166,285,0
0.03314099,-13248,2196,-10316,-2128,-187,235,0
0.0165613,-13056,2212,-10472,-2160,-178,216,0
0.0165613,-12888,2220,-10284,-2144,-410,144,0
0.01656679,-12952,2200,-10292,-2112,-369,543,0
0.01656067,-12972,2164,-10200,-2160,-64,156,0
0.01655992,-13036,2360,-10484,-2144,-197,44,0
0.01655992,-13120,2316,-10396,-2144,-446,200,0
0.03312283,-13328,2364,-10256,-2144,-464,502,0
0.01656033,-12920,2400,-10224,-2160,21,-9,0
0.01656033,-12944,2432,-10416,-2112,-216,165,0
0.01655792,-13136,2292,-10284,-2128,-136,299,0
0.01656215,-12928,2320,-10364,-2128,-133,195,0
0.01656402,-12968,2276,-10472,-2144,-178,170,0
0.01655872,-13164,2252,-10116,-2128,-172,253,0
0.0165603,-12880,2488,-10360,-2144,-30,263,0
0.01656233,-12916,2488,-10372,-2128,-140,248,0
0.01656286,-12840,2480,-10304,-2144,-141,201,0
0.01656032,-12976,2384,-10588,-2112,44,111,0
0.01656273,-13040,2352,-10324,-2160,125,136,1
0.01656273,-12980,2284,-10148,-2112,58,248,1
0.01656164,-13044,2252,-10232,-2112,-50,559,1
0.01656197,-12976,2424,-10268,-2144,-194,155,1
0.01679715,-13124,2308,-10528,-2112,-285,298,1
0.01679715,-13284,2284,-10408,-2112,-41,281,1
0.01646894,-13064,2380,-10544,-2144,-196,214,1
0.01655934,-12760,2428,-10348,-2160,-91,251,1
0.01656315,-12788,2312,-10300,-2112,-38,323,1
0.0165588,-13180,2280,-10336,-2128,-164,146,1
0.01655822,-12864,2332,-10272,-2096,-161,158,0
0.01656354,-13116,2356,-10376,-2144,-244,130,0
0.01656307,-12824,2444,-10500,-2128,-215,205,0
0.01655942,-13084,2396,-10244,-2144,-38,160,0
0.01656348,-12716,2560,-10392,-2144,-175,111,0
0.01633632,-13116,2416,-10516,-2128,-175,285,0
0.01633632,-12936,2380,-10276,-2112,-141,151,0
0.01656328,-13264,2428,-10388,-2112,-162,251,0
0.01656328,-13160,2420,-10452,-2080,-134,234,0
0.01641483,-12984,2452,-10404,-2096,-75,275,0
0.0167073,-13032,2420,-10372,-2112,-90,361,0
0.0165604,-12876,2524,-10188,-2144,-225,165,0
0.01656046,-12884,2540,-10564,-2112,7,271,0
0.01656083,-13080,2440,-10544,-2128,173,189,0
0.01656083,-12888,2304,-10400,-2112,176,321,0
0.0165619,-13192,2392,-10364,-2112,89,364,0
0.0165619,-12964,2424,-10468,-2144,-102,154,0
0.0165628,-12896,2400,-10484,-2112,-202,274,0
0.01656091,-12780,2476,-10492,-2176,15,274,0
0.01655776,-12996,2420,-10460,-2128,-89,245,0
0.01656174,-12928,2352,-10616,-2144,-112,201,0
0.01656174,-13108,2364,-10320,-2144,10,407,0
0.01656186,-13084,2268,-10328,-2144,-142,245,0
0.01656605,-13032,2412,-10600,-2128,-279,183,0
0.01656217,-13144,2288,-10728,-2144,-255,116,0
0.0165591,-13040,2492,-10304,-2144,-194,321,0
0.0165611,-12672,2576,-10504,-2144,-80,122,0
0.01656362,-12716,2612,-10372,-2112,-171,96,0
0.01656078,-12844,2416,-10492,-2096,-220,271,0
0.01656131,-13044,2464,-10492,-2144,-106,209,0
0.01692754,-12868,2540,-10560,-2128,-102,185,1
0.01655147,-12736,2600,-10436,-2112,-86,206,1
0.01655147,-12760,2520,-10500,-2160,-94,274,1
0.03315516,-13080,2432,-10524,-2080,8,336,1
0.01656523,-13028,2452,-10544,-2128,-214,119,1
0.01656523,-13040,2388,-10488,-2080,3,255,1
0.01656116,-13120,2396,-10444,-2112,67,174,1
0.01656116,-13012,2360,-10400,-2080,184,264,1
0.01656236,-12688,2328,-10380,-2128,106,299,1
0.01656308,-12876,2436,-10540,-2128,-63,158,1
0.01656594,-12872,2480,-10552,-2128,-227,401,1
0.01656594,-12780,2452,-10336,-2160,0,279,1
0.01656526,-12736,2464,-10520,-2112,-150,190,1
0.0165607,-12768,2452,-10464,-2144,-41,225,1
0.0165607,-12996,2428,-10504,-2144,-135,224,1
0.01656294,-12748,2404,-10692,-2128,-64,172,1
0.01656115,-12636,2488,-10412,-2096,115,412,1
0.01656579,-12712,2428,-10412,-2112,-229,145,1
0.01656232,-12632,2512,-10616,-2128,-319,174,1
0.01656868,-12916,2540,-10644,-2112,-194,207,1
0.01656616,-12732,2476,-10504,-2112,-77,225,1
0.01656512,-12792,2432,-10452,-2112,-78,18,1
0.01656512,-12952,2416,-10536,-2112,-255,171,1
0.016565,-12788,2388,-10648,-2096,-129,269,1
0.01660397,-12996,2488,-10728,-2096,-95,91,1
0.01656541,-12876,2444,-10704,-2080,-65,163,1
0.01656743,-13084,2316,-10668,-2128,-100,237,1
0.01656483,-12600,2404,-10688,-2096,-17,211,1
0.01656542,-12760,2520,-10560,-2128,-115,227,1
0.01656542,-12760,2524,-10496,-2112,-61,247,1
0.01656676,-12568,2488,-10680,-2128,12,174,1
0.01656447,-12784,2520,-10668,-2128,126,135,1
0.01656447,-12648,2372,-10712,-2096,148,224,1
0.01656645,-13032,2400,-10484,-2112,92,142,1
0.01656284,-12656,2624,-10624,-2128,-169,132,1
0.01656575,-13108,2328,-10576,-2096,-16,187,1
0.01656275,-13004,2332,-10556,-2112,-31,162,1
0.01656275,-12516,2436,-10472,-2128,-101,172,1
0.01656351,-12928,2432,-10584,-2096,-97,301,1
0.01656351,-12664,2328,-10760,-2112,-83,214,1
0.01656472,-12680,2412,-10524,-2128,10,204,1
0.01656792,-12832,2576,-10544,-2112,-130,56,1
0.01656792,-12820,2404,-10796,-2112,-138,142,1
0.01656399,-13128,2428,-10428,-2112,-30,421,1
0.01656665,-12632,2324,-10548,-2096,-158,110,1
0.01656665,-12776,2380,-10724,-2096,-409,-6,1
0.01656746,-12912,2508,-10656,-2112,-214,287,1
0.01656762,-13008,2336,-10600,-2144,-103,85,1
0.01656113,-12580,2616,-10508,-2128,-143,-30,1
0.01656122,-13020,2420,-10604,-2112,-229,180,1
0.01656427,-12832,2368,-10584,-2144,-116,163,0
0.01596357,-12880,2496,-10564,-2128,-95,87,0
0.01596357,-12612,2476,-10556,-2112,-59,117,0
0.01656476,-12692,2440,-10624,-2112,-42,128,0
0.01656723,-12880,2548,-10696,-2128,-34,174,0
0.01656723,-12900,2412,-10468,-2096,-91,114,0
0.01656438,-12840,2452,-10500,-2096,-54,176,0
0.01656473,-12676,2500,-10692,-2096,12,126,0
0.01656738,-13020,2376,-10692,-2128,131,48,0
0.01656738,-13052,2328,-10528,-2080,185,174,0
0.01656377,-12968,2352,-10528,-2112,46,153,1
0.01656958,-12800,2400,-10600,-2112,-143,121,1
0.0165643,-13028,2280,-10492,-2112,-97,225,1
0.01656357,-12952,2404,-10472,-2096,-22,199,1
0.01656471,-12720,2560,-10476,-2112,-139,106,1
0.01656737,-12880,2300,-10640,-2112,-60,200,1
0.01656737,-12888,2340,-10596,-2112,-80,186,1
0.01656579,-12760,2396,-10528,-2112,-74,165,1
0.01656573,-12904,2344,-10604,-2128,-120,159,1
0.01656477,-12804,2448,-10668,-2128,-107,175,1
0.01656623,-12852,2448,-10608,-2112,-92,193,1
0.01656623,-12880,2396,-10488,-2080,-155,99,1
0.01656282,-12716,2448,-10524,-2112,-29,160,1
0.01656407,-13096,2244,-10528,-2096,-36,213,1
0.01655956,-12592,2560,-10496,-2128,-255,153,1
0.01656952,-12896,2416,-10652,-2112,-290,-49,1
0.01656353,-13040,2392,-10532,-2128,-102,325,1
0.01656736,-12728,2476,-10588,-2080,-35,89,1
0.01656736,-12556,2512,-10484,-2080,-61,14,1
0.0165655,-12992,2412,-10504,-2112,-126,147,1
0.01656708,-12728,2524,-10636,-2096,-89,234,1
0.01656532,-13140,2288,-10588,-2112,-93,109,1
0.01656299,-12712,2424,-10644,-2096,-91,156,1
0.01656719,-12784,2424,-10444,-2112,-61,237,1
0.03312844,-12812,2452,-10516,-2096,4,287,1
0.01656319,-12936,2352,-10636,-2096,-116,108,1
0.01656337,-12848,2488,-10528,-2128,-71,158,1
0.01656512,-12740,2456,-10720,-2112,78,161,1
0.01656416,-12856,2396,-10668,-2112,125,74,1
0.01656834,-12600,2424,-10444,-2112,143,132,1
0.01656545,-12836,2356,-10428,-2096,180,176,1
0.01656545,-12900,2292,-10524,-2112,-200,-13,1
0.01656396,-12848,2380,-10660,-2112,-83,248,1
0.01656569,-13072,2408,-10444,-2096,-88,217,1
0.01656569,-12976,2232,-10532,-2096,-141,179,1
0.01655945,-13076,2224,-10424,-2096,-100,201,1
0.01656358,-12736,2368,-10680,-2128,-130,203,1
0.01656386,-12924,2336,-10564,-2096,-109,192,1
0.01656373,-12892,2288,-10508,-2096,-48,184,1
0.0165649,-12900,2404,-10500,-2128,-40,101,1
0.01656339,-12900,2232,-10600,-2096,-84,144,0
0.01656788,-12940,2336,-10636,-2064,-127,170,0
0.01655657,-13004,2368,-10636,-2096,-117,150,0
0.01656395,-12940,2348,-10624,-2080,-17,181,0
0.0165675,-12768,2412,-10576,-2112,-110,63,0
0.01656621,-13000,2280,-10668,-2064,-29,72,0
0.01656448,-13056,2244,-10476,-2080,-48,128,0
0.01656448,-12736,2388,-10412,-2112,-60,191,0
0.01656336,-12816,2448,-10568,-2096,-110,-179,0
0.01656459,-12924,2392,-10740,-2128,-22,189,0
0.01656459,-12728,2304,-10424,-2112,-36,56,0
0.01656526,-12896,2472,-10496,-2096,-13,-57,0
0.01656244,-12732,2384,-10372,-2080,12,38,0
0.01655964,-12660,2324,-10660,-2128,-26,98,0
0.0165661,-12888,2332,-10420,-2112,-39,126,0
0.01656281,-12800,2324,-10424,-2112,-17,152,0
0.01656478,-12764,2304,-10528,-2096,24,142,0
0.01656638,-12880,2316,-10396,-2096,29,-16,0
0.01656638,-13016,2228,-10532,-2112,-107,121,0
0.0165641,-12972,2344,-10568,-2096,-17,90,0
0.0165641,-12800,2328,-10500,-2112,101,81,0
0.01656373,-13040,2172,-10596,-2080,143,49,0
0.01656611,-12888,2196,-10404,-2080,99,61,0
0.01656632,-13064,2036,-10572,-2064,184,17,0
0.01656498,-12932,2404,-10432,-2048,23,114,0
0.01656327,-12900,2212,-10480,-2064,-182,132,0
0.01656327,-13060,2244,-10480,-2080,-8,239,0
0.01656523,-12852,2152,-10416,-2080,-63,177,0
0.01656548,-12668,2236,-10424,-2096,-106,180,0
0.01656305,-13100,2136,-10648,-2080,-86,190,0
0.016567,-12844,2144,-10424,-2096,-40,127,0
0.01656258,-13188,2156,-10448,-2064,-39,124,0
0.01656432,-12892,2160,-10456,-2048,-84,174,0
0.01656309,-13228,2288,-10412,-2080,-53,125,0
0.01656309,-13068,2108,-10548,-2080,-35,41,0
0.01656479,-12872,2316,-10516,-2112,-90,91,0
0.01656626,-12812,2264,-10484,-2112,-86,164,0
0.01656626,-12760,2288,-10400,-2080,-132,134,0
0.01656481,-12856,2272,-10504,-2096,23,-15,0
0.01656348,-13192,2236,-10420,-2112,12,-55,0
0.01656655,-12860,2240,-10612,-2080,-114,59,0
0.01657316,-13084,2156,-10416,-2048,-17,176,0
0.01656754,-12788,2104,-10304,-2080,31,190,0
0.01656489,-13040,2216,-10468,-2064,23,18,0
0.01656489,-12868,2260,-10480,-2096,-84,-143,0
0.01656169,-13172,2132,-10280,-2080,24,179,0
0.0165648,-13032,2060,-10332,-2096,27,53,0
0.0165648,-12812,2172,-10464,-2080,38,-257,0
0.01656604,-12792,2116,-10360,-2064,25,3,0
0.01656284,-12996,2252,-10348,-2080,18,95,0
0.01656282,-13180,2236,-10372,-2080,-4,56,0
0.01655965,-13044,2100,-10564,-2080,-7,68,0
0.01656476,-13092,2068,-10428,-2096,4,69,0
0.01656515,-12860,2236,-10360,-2112,-93,120,0
0.01656515,-13112,2060,-10372,-2096,-105,70,0
0.01640333,-12852,2236,-10368,-2080,-5,-64,0
0.01656393,-13192,1964,-10284,-2064,10,182,0
0.01656054,-12976,2144,-10348,-2096,54,115,0
0.01656488,-13188,1948,-10424,-2096,7,179,0
0.01656349,-13104,2072,-10348,-2064,34,128,0
0.01656349,-13068,2100,-10240,-2096,-60,57,0
0.01661045,-13012,2032,-10492,-2096,-145,159,0
0.01656613,-13152,2132,-10496,-2112,-72,149,0
0.01656661,-13080,2132,-10236,-2080,-94,221,0
0.01656427,-13160,1860,-10224,-2080,-97,106,0
0.01656498,-13068,2052,-10472,-2096,-115,175,0
0.01656469,-12884,1968,-10416,-2080,-125,176,0
0.01656676,-13132,2136,-10376,-2080,-57,156,0
0.01656651,-13020,2000,-10268,-2064,-123,211,0
0.01656264,-13356,2076,-10360,-2080,-90,229,0
0.01656439,-13128,2040,-10380,-2096,-84,192,0
0.01656484,-13152,2124,-10512,-2080,-104,159,0
0.01656484,-13252,2060,-10456,-2096,-101,170,0
0.01656308,-13236,1900,-10372,-2096,7,112,0
0.01656568,-13264,2020,-10332,-2096,-67,236,0
0.01656404,-13196,2104,-10480,-2080,-50,90,0
0.01656576,-13276,1956,-10500,-2080,-101,145,0
0.01656576,-13148,2192,-10372,-2096,56,164,0
0.01656622,-13044,2092,-10300,-2080,84,250,0
0.01656605,-12952,2016,-10316,-2112,-84,112,0
0.01656424,-13092,1884,-10424,-2096,-192,122,0
0.01656424,-13048,1992,-10220,-2112,-50,173,0
0.01656502,-13224,2016,-10360,-2064,-37,114,0
0.01656549,-13068,2032,-10312,-2048,71,85,0
0.01661707,-12820,2116,-10300,-2048,-97,195,0
0.01661707,-13268,1872,-10444,-2064,-56,138,0
0.01656486,-12920,1980,-10328,-2080,-13,151,0
0.01656614,-13148,1996,-10260,-2048,-41,184,0
0.01656374,-13128,1848,-10312,-2096,-57,188,0
0.01656374,-12876,1948,-10232,-2048,13,236,0
0.01656244,-12980,1948,-10368,-2080,17,185,0
0.01656411,-13192,1920,-10348,-2064,64,159,0
0.01656428,-13108,2028,-10504,-2064,91,-29,0
0.01656449,-12932,1988,-10260,-2064,46,51,0
0.01656351,-12924,1940,-10384,-2064,9,158,0
0.016568,-13084,2020,-10304,-2064,-73,166,0
0.01656252,-13244,1956,-10276,-2064,-121,316,0
0.01656472,-13112,1852,-10400,-2080,-102,230,0
0.01656488,-13036,1932,-10360,-2064,-101,249,0
0.01656625,-13232,1816,-10560,-2048,-61,257,0
0.01656625,-12976,1900,-10416,-2064,-86,212,0
0.01656726,-12924,1872,-10272,-2080,-58,210,0
0.01656566,-12844,1932,-10424,-2080,-115,170,0
0.01656566,-13212,1816,-10280,-2064,-103,177,0
0.01656835,-12884,2068,-10332,-2064,-100,123,0
0.01656496,-13004,1960,-10204,-2064,-114,158,0
0.01656705,-12976,2020,-10184,-2064,-91,239,0
0.01656705,-13120,1980,-10436,-2080,-51,162,0
0.01656716,-13060,1884,-10300,-2048,-41,191,0
0.03313503,-12932,1972,-10364,-2048,-80,102,0
0.03313503,-13192,1880,-10200,-2064,-137,136,0
0.01656252,-13216,1860,-10280,-2064,21,145,0
0.01656252,-13132,1948,-10172,-2064,50,245,0
0.01656697,-13000,1880,-10576,-2080,-18,-55,0
0.01656454,-12928,2008,-10432,-2064,-161,60,0
0.0165674,-13100,1932,-10100,-2064,17,47,0
0.01656107,-13240,1904,-10584,-2064,22,55,0
0.01656643,-13132,1856,-10432,-2064,-125,115,0
0.01656338,-13244,1868,-10304,-2080,-78,117,0
0.01656659,-13144,1876,-10296,-2080,-108,144,0
0.01656272,-13260,1924,-10384,-2064,-134,64,0
0.01656272,-12936,1916,-10344,-2064,-101,124,0
0.04969428,-12964,1912,-10324,-2064,-84,138,0
0.04969428,-12928,1928,-10452,-2048,-81,131,0
0.04969428,-13196,1900,-10440,-2048,-65,148,0
0.06626085,-13060,1908,-10640,-2080,9,165,0
0.01656454,-13020,1908,-10364,-2048,16,34,0
0.01656454,-13244,1952,-10284,-2080,-49,160,0
0.01656282,-12960,1912,-10476,-2080,-52,146,0
0.01656484,-13072,2032,-10344,-2064,-109,119,0
0.01656484,-13156,2004,-10304,-2048,-146,147,0
0.01657547,-12956,1916,-10336,-2064,-119,162,0
0.01656745,-13328,1848,-10280,-2064,-104,187,0
0.01656344,-13328,1780,-10276,-2080,-118,172,0
0.01656495,-13288,1840,-10232,-2032,-132,153,0
0.01656371,-13020,1908,-10488,-2080,-118,181,0
0.0165657,-12960,1900,-10312,-2080,-103,181,0
0.01656542,-13128,1876,-10296,-2096,-135,161,0
0.01656362,-13032,1972,-10192,-2064,-139,190,0
