Time,Ax,Ay,Az,Gx,Gy,Gz,Breathing,Ground Truth
8.579633,-724,0,0,0,0,0,0,0
8.579633,5904,1104,-15428,336,-413,-243,0,0
8.795652,5948,1044,-15144,368,-735,-865,0,0
8.795652,6136,1068,-15244,368,251,-482,0,0
8.795652,6240,488,-15228,368,250,-554,0,0
8.845501,5940,516,-15460,352,155,-149,0,0
8.845501,5912,604,-15088,352,-681,43,0,0
8.845501,5712,648,-15320,352,-10,-758,0,0
8.845501,5752,1124,-15528,368,-400,-168,0,0
8.87874,5756,736,-15536,336,192,47,0,0
8.87874,5712,892,-15508,384,-869,-114,0,0
8.87874,5612,948,-15532,352,-287,73,0,0
8.87874,5612,984,-15384,336,-1251,45,0,0
8.911978,6192,592,-15376,352,-186,690,0,0
8.97844,6252,-1216,-15124,352,552,914,0,0
8.97844,6132,-176,-15480,368,793,461,0,0
9.011678,6104,632,-15168,336,-742,142,0,0
9.028295,5984,924,-15092,352,-508,-502,0,0
9.06153,5988,876,-15676,336,-769,-337,0,0
9.111369,6040,816,-15252,384,-810,19,0,0
9.16122,5956,932,-14884,384,-742,-189,0,0
9.16122,5956,1228,-15248,384,-601,-221,0,0
9.177843,5860,1484,-15368,368,-367,-24,0,0
9.244295,5924,1176,-15048,384,56,264,0,0
9.244295,6240,924,-15200,352,3,356,0,0
9.244295,6192,592,-15084,384,54,46,0,0
9.29415,6132,540,-15252,352,-393,-244,0,0
9.327308,5972,432,-15436,368,-384,-144,0,0
9.343999,6040,484,-15420,368,-121,155,0,0
9.377233,6196,360,-15324,352,-427,89,0,0
9.377233,6144,400,-15096,368,-768,-118,0,0
9.427087,6112,472,-15364,368,-502,-139,0,0
9.427087,6076,484,-15396,336,-72,-212,0,0
9.476937,6260,536,-15436,336,-508,-440,0,0
9.476937,6100,856,-15292,352,-58,-142,0,0
9.526795,6056,1024,-15236,368,108,-44,0,0
9.526795,5976,1188,-15164,352,8,-564,0,0
9.609871,5932,1032,-15232,384,116,-590,0,0
9.609871,6028,908,-15352,320,-30,-345,0,0
9.659731,6072,784,-15460,352,-411,-394,0,0
9.692886,5748,688,-15332,336,-572,-307,0,0
9.692886,5848,520,-15772,320,-176,159,0,0
9.742804,6072,508,-14992,352,-431,-226,0,0
9.742804,5768,480,-15124,352,-509,-960,0,0
9.792652,5804,492,-15488,352,377,-316,0,0
9.792652,5832,440,-15672,368,214,-130,0,0
9.825888,5792,564,-15440,336,-484,-450,0,0
9.825888,5824,668,-15284,352,-36,-405,0,0
9.875746,5796,536,-15240,384,413,-519,0,0
9.92559,5776,556,-15512,400,-150,-582,0,0
9.92559,5768,584,-15532,368,-278,-74,0,0
9.958823,5656,588,-15456,384,23,239,0,0
9.958823,5740,556,-15560,368,-452,-225,0,0
10.00867,5644,508,-15392,352,-697,-184,0,0
10.00867,5640,520,-15248,368,99,219,0,0
10.05852,5692,564,-15484,368,-282,51,0,0
10.05852,5612,508,-15500,336,-227,-118,0,0
10.09175,5788,608,-15604,368,-228,-182,0,0
10.10837,5780,584,-15360,352,-129,-236,0,0
10.1416,5644,652,-15720,368,-319,-162,0,0
10.19145,5840,440,-15688,368,-810,141,0,0
10.19145,5732,656,-15340,336,-291,-13,0,0
10.2413,5700,672,-15300,352,804,61,0,0
10.2413,5760,580,-15640,352,10,28,0,0
10.29115,5660,548,-15444,352,-852,56,0,0
10.29115,5540,684,-15528,384,-336,24,0,0
10.32439,5812,648,-15732,368,-315,288,0,0
10.32439,5888,604,-15232,336,-579,-86,0,0
10.37424,5724,504,-15116,320,-96,-192,0,0
10.37424,5712,416,-15800,368,31,-137,0,0
10.50718,5644,528,-15472,384,-181,124,0,0
10.50718,5636,472,-15420,384,-355,-86,0,0
10.55704,5676,560,-15324,368,16,51,0,0
10.55704,5724,456,-15396,384,-83,-133,0,0
10.60689,5788,440,-15544,368,-241,-207,0,0
10.60689,5704,432,-15404,352,-47,-43,0,0
10.64012,5720,452,-15596,368,-100,16,0,0
10.64012,5684,460,-15448,368,-348,62,0,0
10.68998,5680,536,-15408,384,-342,26,0,0
10.72321,5644,464,-15292,368,-215,49,0,0
10.73983,5672,428,-15372,352,-355,-108,0,0
10.77305,5656,452,-15368,384,-191,-37,0,0
10.77305,5668,500,-15404,368,-191,-42,0,0
10.88936,5728,356,-15460,368,-275,-61,0,0
10.88936,5772,488,-15536,352,-269,-12,0,0
10.9226,5700,420,-15476,336,-58,180,0,0
10.9226,5688,408,-15552,368,-262,303,0,0
10.95584,5680,448,-15564,384,-274,187,0,0
10.97246,5680,352,-15496,384,-295,115,0,0
11.00569,5740,412,-15488,384,-321,242,0,0
11.00569,5660,476,-15464,368,-135,298,0,0
11.03892,5764,428,-15236,368,-195,285,0,0
11.07216,5824,516,-15524,400,-262,147,0,0
11.08878,5704,452,-15440,352,-295,334,0,0
11.10539,5752,360,-15264,336,-276,210,0,0
11.15524,5688,464,-15452,384,-570,-59,0,0
11.15524,5840,464,-15540,352,-407,141,0,0
11.22172,5952,344,-15064,384,-592,-56,0,0
11.23833,5844,512,-14972,368,-130,-491,0,0
11.25495,5780,360,-15656,336,-20,-180,0,0
11.27156,5656,348,-15468,384,-224,-161,0,0
11.3048,5676,488,-15396,368,-324,-37,0,0
11.3048,5688,496,-15404,400,127,123,0,0
11.33803,6104,448,-16212,352,371,218,0,0
11.35465,5916,360,-15756,352,37,195,0,0
11.37127,5684,284,-14480,368,-540,1038,0,0
11.4045,6148,376,-14716,400,433,223,0,0
11.42112,5940,296,-15404,352,1106,-925,0,0
11.45435,6024,112,-16056,368,-684,-836,0,0
11.48758,5948,356,-15588,352,-1595,241,0,0
11.55405,5800,284,-15196,368,-764,508,0,0
11.57067,5584,192,-15300,368,-1001,382,0,0
11.63714,5500,296,-15136,368,-1039,106,0,0
11.63714,5460,536,-15376,368,-213,182,0,0
11.68699,5568,628,-15776,400,327,430,0,0
11.68699,5948,876,-15524,368,-119,-35,0,0
11.72023,6208,932,-15112,368,-338,-806,0,0
11.75346,6396,616,-14592,384,33,-624,0,0
11.75346,5976,584,-14684,368,1074,351,0,0
11.7867,5800,184,-15500,368,1768,-143,0,0
11.81994,5632,-108,-15812,368,621,-409,0,0
11.86979,5696,-316,-15756,400,-1086,-1207,0,0
11.90302,5836,-208,-15416,368,-1011,-751,0,0
11.93626,5752,-188,-15516,336,65,-335,0,0
11.98611,5564,-8,-16148,336,-518,612,0,0
12.01935,5684,244,-15532,368,-1242,210,0,0
12.01935,5764,628,-14672,384,-580,-198,0,0
12.08581,5744,692,-14764,352,826,-174,0,0
12.08581,5780,408,-15532,368,1250,-377,0,0
12.11905,5636,4,-15884,384,-411,-523,0,0
12.15228,5464,-152,-15804,384,-846,-150,0,0
12.15228,5504,-28,-15616,352,-1009,-66,0,0
12.20213,5656,28,-15256,368,-894,215,0,0
12.23537,5776,212,-15264,368,57,686,0,0
12.2686,5636,396,-15380,352,218,697,0,0
12.2686,5604,428,-15472,368,-211,290,0,0
12.31845,5608,456,-15440,400,-256,392,0,0
12.35168,5700,432,-15188,352,-332,479,0,0
12.40153,5724,300,-15292,352,-392,395,0,0
12.41815,5944,352,-15656,336,-495,210,0,0
12.468,5900,224,-15640,336,-757,715,0,0
12.468,5936,176,-15400,368,-837,775,0,0
12.50123,5964,76,-15292,368,-1110,431,0,0
12.53447,6024,152,-15236,352,-593,366,0,0
12.5677,6004,140,-15556,368,-552,482,0,0
12.5677,6104,324,-15480,336,-766,435,0,0
12.61755,6056,512,-15400,368,-660,411,0,0
12.65078,6164,596,-15384,368,-295,560,0,0
12.70063,6108,532,-15288,352,-212,483,0,0
12.71725,5980,384,-15332,368,-572,289,0,0
12.76709,6120,532,-15424,368,-730,158,0,0
12.76709,6268,684,-15424,368,-361,626,0,0
12.80033,6264,652,-15044,368,-551,464,0,0
12.83357,6120,492,-15044,384,-474,185,0,0
12.8668,6256,388,-15392,368,-369,266,0,0
12.91665,6380,472,-15444,368,-491,502,0,0
12.94988,6328,624,-15260,368,-199,867,0,0
12.98312,6268,640,-14968,384,-460,731,0,0
12.99974,6520,472,-15040,368,-601,364,0,0
13.03298,6540,568,-15264,384,-586,96,0,0
13.0662,6376,608,-15180,368,-500,809,0,0
13.09944,6456,644,-15212,352,-221,861,0,0
13.09944,6652,608,-15088,336,-554,447,0,0
13.13267,6488,584,-15152,368,-1218,354,0,0
13.21575,6404,772,-14916,384,-738,482,0,0
13.23237,6560,824,-15208,368,-496,440,0,0
13.24899,6624,836,-15032,368,-335,911,0,0
13.28222,6576,664,-14984,400,-181,543,0,0
13.28222,6740,936,-15044,384,-264,595,0,0
13.33208,6788,780,-15100,384,-601,599,0,0
13.36531,7328,824,-15144,368,-1041,157,0,0
13.39854,6664,796,-15136,416,-975,358,0,0
13.39854,6824,904,-14928,352,-276,723,0,0
13.44839,6860,756,-14900,352,-151,593,0,0
13.48162,6980,744,-15012,384,-1260,220,0,0
13.51486,7120,924,-14896,384,-1163,408,0,0
13.5481,6908,940,-14592,352,-705,545,0,0
13.58132,6876,1068,-14672,368,-270,347,0,0
13.58132,6892,976,-15072,384,-140,97,0,0
13.63118,7052,916,-14928,384,-544,153,0,0
13.66441,6964,1036,-14900,384,-744,264,0,0
13.69765,6908,1036,-14684,384,-361,-131,0,0
13.73079,6808,1004,-14620,368,-681,-889,0,0
13.78074,6892,1048,-14840,368,-480,-1089,0,0
13.81396,6956,980,-15000,400,-102,-743,0,0
13.81396,6936,1100,-15152,352,-327,-494,0,0
13.84721,6848,1132,-14828,384,-726,-890,0,0
13.88045,6684,1204,-14956,384,-102,-733,0,0
13.93028,6780,996,-15172,352,-12,-303,0,0
13.93028,6792,1044,-15116,368,-202,-238,0,0
13.96352,6652,1088,-14972,384,-49,-283,0,0
14.02998,6676,1072,-14812,368,110,-334,0,0
14.02998,6704,896,-14932,400,-262,-459,0,0
14.07983,6724,1124,-15112,384,-31,-320,0,0
14.11307,6432,1060,-15032,352,-400,-422,0,0
14.14631,6468,1088,-15052,368,-455,-695,0,0
14.22938,6548,1116,-15192,400,-265,-455,0,0
14.22938,6612,1064,-15288,368,-14,-71,0,0
14.26263,6452,1064,-14852,384,-429,-240,0,0
14.26263,6352,1040,-14772,368,-42,-687,0,0
14.29586,6420,1088,-15272,384,311,-874,0,0
14.3291,6480,944,-15260,368,-26,-420,0,0
14.37895,6256,1004,-15264,384,-46,-478,0,0
14.37895,6296,932,-15040,352,-58,-447,0,0
14.41219,6388,896,-14984,384,-35,-470,0,0
14.44541,6400,976,-15180,352,453,-273,0,0
14.47865,6236,848,-15520,368,1,-146,0,0
14.49527,6156,856,-15344,368,-560,-228,0,0
14.56174,6220,948,-14988,384,-346,-494,0,0
14.59497,6072,896,-15164,368,89,-480,0,0
14.61158,6136,824,-15404,352,-81,-373,0,0
14.64482,6228,840,-15328,368,-504,-353,0,0
14.67805,6108,900,-15200,384,-191,-433,0,0
14.67805,6180,820,-15128,368,65,-290,0,0
14.71128,6236,900,-15260,384,64,-323,0,0
14.74452,6140,764,-15232,384,151,-481,0,0
14.79436,6052,720,-15232,368,38,-470,0,0
14.81098,5872,816,-15304,400,107,-463,0,0
14.86084,5936,636,-15408,384,-206,-507,0,0
14.89407,5976,644,-15608,384,-181,-554,0,0
14.91069,6060,660,-15276,384,-260,-547,0,0
14.92731,5860,668,-14872,400,83,-813,0,0
14.97716,5680,636,-15388,400,162,-1044,0,0
15.01039,5800,532,-15720,384,-359,-822,0,0
15.01039,5752,644,-15588,352,-32,-546,0,0
15.04363,5748,524,-15320,384,361,-268,0,0
15.09346,5692,624,-15404,368,98,-483,0,0
15.12671,5792,500,-15448,368,-275,-494,0,0
15.15995,5724,596,-15472,400,192,-223,0,0
15.19318,5604,480,-15432,400,-40,-317,0,0
15.2098,5684,452,-15496,368,-154,-274,0,0
15.24303,5600,500,-15376,400,-176,-133,0,0
15.27627,5684,620,-15580,416,-154,-139,0,0
15.3095,5516,480,-15464,368,-31,-116,0,0
15.34274,5540,472,-15460,400,-99,-332,0,0
15.39259,5456,516,-15488,384,-237,-290,0,0
15.42582,5576,412,-15464,400,-126,-239,0,0
15.42582,5464,492,-15524,352,-194,-356,0,0
15.45906,5508,468,-15428,400,-224,67,0,0
15.49229,5456,412,-15404,368,86,294,0,0
15.54214,5520,440,-15568,384,-133,-241,0,0
15.54214,5564,420,-15324,416,-142,-184,0,0
15.57538,5496,396,-15524,384,-79,17,0,0
15.64185,5616,340,-15596,368,-147,-60,0,0
15.65846,5452,360,-15660,368,-67,-102,0,0
15.6917,5496,268,-15600,384,-270,33,0,0
15.72493,5512,372,-15544,384,-188,14,0,0
15.72493,5460,292,-15372,368,-221,62,0,0
15.75818,5484,332,-15420,368,-48,25,0,0
15.79139,5500,356,-15712,384,-76,-19,0,0
15.84126,5564,228,-15640,432,-93,33,0,0
15.87449,5472,224,-15252,400,-343,172,0,0
15.89111,5548,304,-15460,368,-526,137,0,0
15.95757,5528,336,-15612,400,-408,-225,0,0
15.95757,5608,236,-16028,368,-498,155,0,0
15.97418,5604,304,-15520,384,-827,268,0,0
16.02405,5552,412,-14864,368,-672,-171,0,0
16.05728,5508,344,-15380,368,130,-253,0,0
16.0739,5404,320,-15796,384,120,14,0,0
16.10713,5444,320,-15624,400,-467,65,0,0
16.14037,5492,360,-15524,384,-34,92,0,0
16.1736,5612,256,-15468,384,-41,-68,0,0
16.20684,5600,264,-15588,400,-264,-37,0,0
16.24007,5488,220,-15468,400,-188,87,0,0
16.25669,5524,292,-15544,400,-74,13,0,0
16.28993,5528,352,-15544,400,-404,-135,0,0
16.32317,5532,356,-15516,384,-455,-141,0,0
16.3564,5556,312,-15448,368,-260,-136,0,0
16.40625,5532,228,-15524,384,-89,-43,0,0
16.40625,5572,32,-15504,384,-156,82,0,0
16.47272,5864,-8,-15428,400,164,798,0,0
16.47272,5996,-436,-15344,368,665,1354,0,0
16.50596,5884,-228,-15372,352,771,922,0,0
16.5558,5560,320,-15496,416,-229,113,0,0
16.58904,5152,1152,-15632,416,-990,-290,0,0
16.58904,5264,924,-15524,384,-316,-169,0,0
16.63889,5584,648,-15508,368,-189,-84,0,0
16.65551,5656,584,-15556,384,-704,-31,0,0
16.70535,5632,692,-15308,368,-478,-48,0,0
16.73859,5612,876,-15268,384,-595,-31,0,0
16.77184,5600,792,-15020,368,-558,180,0,0
16.77184,5432,848,-15004,384,-290,436,0,0
16.82168,5472,824,-15624,352,-374,-173,0,0
16.88814,5240,628,-15616,368,-1146,325,0,0
16.90475,5512,132,-15452,400,-55,1050,0,0
16.92138,5964,-432,-15592,416,-4,818,0,0
16.95462,6104,-832,-15648,416,-240,417,0,0
17.00446,6360,-604,-15324,368,-906,-154,0,0
17.00446,6040,-200,-14820,384,-1422,-214,0,0
17.0377,5740,168,-15200,400,-622,-714,0,0
17.08755,5828,104,-15704,400,-335,-132,0,0
17.12079,5960,-340,-15636,400,-401,378,0,0
17.15402,6304,-428,-15108,384,551,497,0,0
17.15402,6008,-704,-15224,384,410,85,0,0
17.18726,6096,-684,-15240,368,630,-113,0,0
17.22049,6008,-536,-15320,384,849,149,0,0
17.30395,5936,-240,-15476,368,988,474,0,0
17.30395,5784,332,-15664,416,272,138,0,0
17.33724,5480,632,-15636,400,-1093,-384,0,0
17.33724,5296,604,-15460,368,-692,128,0,0
17.37049,5784,44,-15392,352,328,273,0,0
17.40374,6240,-824,-15336,384,638,153,0,0
17.45361,6572,-1180,-15292,416,797,766,0,0
17.45361,6376,-572,-15308,352,719,1002,0,0
17.48686,6012,44,-15288,384,-254,284,0,0
17.52011,5364,620,-15360,368,-473,39,0,0
17.56999,5232,828,-15280,384,-502,186,0,0
17.60324,5820,732,-15096,352,181,267,0,0
17.63649,5968,644,-15424,400,-777,-490,0,0
17.63649,6112,552,-15300,368,-948,-582,0,0
17.66974,6044,456,-15080,368,-555,323,0,0
17.70299,6068,384,-15292,384,-77,549,0,0
17.75287,5856,132,-15412,384,-607,-385,0,0
17.75287,5840,64,-15500,400,-1035,-610,0,0
17.78612,5920,156,-15672,384,-803,23,0,0
17.86925,6292,-236,-15352,384,-79,677,0,0
17.86925,6356,-396,-14928,368,-692,185,0,0
17.9025,6156,-308,-15280,384,-471,-187,0,0
17.93575,6132,-212,-15368,400,-49,-125,0,0
17.969,6084,-64,-15544,400,-478,53,0,0
17.98563,6256,24,-15412,384,-511,414,0,0
18.01888,6220,160,-15288,416,-754,421,0,0
18.05214,6120,268,-15244,384,-372,689,0,0
18.08538,6076,452,-15164,368,-66,522,0,0
18.11864,6144,304,-15512,368,-440,626,0,0
18.1685,6300,372,-15408,400,-600,1146,0,0
18.1685,6328,380,-15088,384,-275,1061,0,0
18.20176,6324,384,-15100,400,-499,565,0,0
18.28488,6308,308,-15200,368,-665,406,0,0
18.28488,6356,364,-15260,352,-1052,10,0,0
18.30151,6228,256,-15192,400,-1272,112,0,0
18.35138,6428,408,-14960,368,-607,478,0,0
18.35138,6428,400,-15228,368,-1313,180,0,0
18.38464,6256,188,-15120,400,-705,185,0,0
18.4345,6600,272,-15172,416,244,297,0,0
18.46776,6612,256,-15052,400,-23,487,0,0
18.46776,6540,180,-15176,416,-282,375,0,0
18.50101,6720,348,-15024,432,-151,398,0,0
18.56749,6648,720,-15188,400,-484,429,0,0
18.61738,6532,956,-15076,400,-862,512,0,0
18.61738,6412,1148,-15080,384,-1280,238,0,0
18.65062,6468,972,-15316,400,-1646,-139,0,0
18.68388,6484,860,-14816,432,-1585,-91,0,0
18.70051,6700,536,-14724,384,-555,52,0,0
18.71713,7012,-160,-15132,384,667,741,0,0
18.76699,7172,-500,-15144,400,1080,1191,0,0
18.81689,7020,-600,-15040,400,1029,682,0,0
18.83351,7072,-112,-15064,400,376,31,0,0
18.83351,6912,244,-15028,400,-283,-139,0,0
18.86674,6660,876,-14940,368,-523,-682,0,0
18.91661,5996,1740,-15092,368,-1367,-1107,0,0
18.93325,6076,2084,-15260,416,-1318,-1187,0,0
18.98313,6140,1756,-15228,384,-655,-1273,0,0
19.033,6104,1380,-15060,384,-510,-832,0,0
19.033,6656,992,-14944,400,451,105,0,0
19.06625,7132,380,-14552,400,2164,179,0,0
19.0995,6936,124,-14956,432,1531,-265,0,0
19.13274,6496,504,-14960,384,-161,-730,0,0
19.14939,5768,1068,-15188,416,-717,-1249,0,0
19.21588,5568,1200,-15284,400,8,-948,0,0
19.21588,6056,508,-15424,400,-217,-813,0,0
19.24913,6508,-264,-15280,416,-85,-338,0,0
19.28239,6808,-520,-15180,384,-103,-759,0,0
19.33225,6600,-140,-15128,400,-765,-1031,0,0
19.33225,5996,328,-15396,368,-499,-654,0,0
19.36551,6128,584,-15556,384,-515,-371,0,0
19.432,6224,668,-14784,400,-335,-682,0,0
19.44864,6016,428,-15080,384,272,-887,0,0
19.46527,5976,264,-15588,400,470,-328,0,0
19.54839,5968,156,-15624,432,26,-193,0,0
19.56502,5832,-32,-15468,400,-77,-226,0,0
19.63151,5904,140,-15592,416,324,-464,0,0
19.63151,5788,208,-15576,400,19,-605,0,0
19.66475,5872,312,-15412,400,-42,-410,0,0
19.66475,5876,288,-15520,384,-270,-282,0,0
19.69801,5792,248,-15508,416,23,-27,0,0
19.73126,5904,116,-15312,384,-463,-20,0,0
19.73126,6020,196,-15420,416,-215,-35,0,0
19.78095,5716,216,-15268,384,49,106,0,0
19.81439,5672,296,-15304,400,-134,-140,0,0
19.84764,5636,276,-15492,400,-380,-257,0,0
19.88089,5828,268,-15556,400,-286,26,0,0
19.89752,5804,92,-15432,416,-349,-261,0,0
19.93077,5804,128,-15408,400,-55,-113,0,0
19.96401,5816,40,-15380,416,-114,-89,0,0
19.99726,5780,140,-15380,400,-226,2,0,0
20.03052,5748,160,-15440,416,-107,118,0,0
20.08039,5784,112,-15336,416,-340,-75,0,0
20.08039,5824,64,-15432,400,-483,-225,0,0
20.11364,5756,64,-15532,384,-550,-178,0,0
20.1469,5848,152,-15352,384,-601,113,0,0
20.18014,5880,92,-15124,416,-663,-392,0,0
20.19677,5672,208,-15300,400,-54,-269,0,0
20.23002,5744,144,-15700,400,78,-87,0,0
20.29652,5636,108,-15292,384,-509,-108,0,0
20.32928,5716,64,-15380,400,-13,-155,0,0
20.34591,5904,112,-15392,400,-156,-114,0,0
20.37916,5840,164,-15540,400,-92,-17,0,0
20.4124,5672,204,-15396,384,-279,95,0,0
20.42902,5688,16,-15320,400,-149,188,0,0
20.44565,5708,16,-15576,416,-85,43,0,0
20.47889,5840,-8,-15344,384,-621,-200,0,0
20.52874,5748,76,-15408,416,-474,109,0,0
20.56199,5676,188,-15384,400,-273,138,0,0
20.59523,5800,168,-15420,400,-278,-63,0,0
20.61186,5800,120,-15596,368,-11,65,0,0
20.62848,5700,136,-15444,400,-23,-79,0,0
20.67834,5784,60,-15608,432,-151,167,0,0
20.71159,5844,32,-15312,416,-355,314,0,0
20.71159,5780,56,-15472,368,20,71,0,0
20.74483,5628,80,-15392,400,-275,-63,1,0
20.7947,5632,12,-15424,416,-194,364,1,0
20.82794,5788,68,-15388,416,-187,85,1,0
20.86105,5796,32,-15544,384,-319,199,1,0
20.89443,5844,-20,-15308,368,-51,202,1,0
20.91105,5828,60,-15360,368,-66,116,1,0
20.94429,5736,88,-15348,432,-421,109,1,0
20.97753,5752,4,-15532,384,-708,-283,1,0
21.01078,5852,20,-15444,432,-473,-98,1,0
21.09387,5772,176,-15040,400,-203,-187,1,0
21.09387,5788,96,-15272,448,82,-487,1,0
21.1105,5876,8,-15928,368,-207,-211,1,0
21.1105,5728,-56,-15584,400,-521,-118,1,0
21.21022,5616,52,-15296,384,-122,-41,1,0
21.21022,5884,56,-15432,416,-25,9,1,0
21.24347,5832,4,-15372,400,-296,-67,1,0
21.27672,5764,-24,-15436,400,-517,52,1,0
21.27672,5764,68,-15592,416,39,-17,1,0
21.30996,5748,84,-15552,400,-321,180,1,0
21.35982,5648,52,-15280,416,-368,0,1,0
21.39307,5752,192,-15416,384,-345,45,1,0
21.42631,5680,32,-15384,400,-500,-208,1,0
21.42631,5888,-4,-15628,400,-533,53,1,0
21.45955,5712,156,-15352,384,-72,294,1,0
21.49279,5904,132,-15588,368,-522,66,1,0
21.54265,5884,208,-15268,384,-183,31,1,0
21.54265,5920,64,-15360,400,-158,12,1,0
21.57589,5728,-32,-15444,368,-302,82,1,0
21.64238,5852,96,-15308,432,-97,104,1,0
21.659,5808,4,-15352,432,-261,29,1,0
21.69225,5804,24,-15236,400,-215,74,1,0
21.72548,5776,132,-15440,384,-279,56,1,0
21.75872,5924,36,-15492,432,-154,151,1,0
21.79196,5824,152,-15300,416,-196,131,1,0
21.80859,5916,80,-15604,416,-313,86,1,0
21.84183,5764,28,-15408,400,-405,-42,1,0
21.87506,5844,64,-15432,416,-472,-227,1,0
21.90831,5808,84,-15540,384,-359,-250,1,0
21.94156,5904,108,-15576,400,-575,132,1,0
21.95817,5888,152,-14964,400,-537,-124,1,0
21.99141,5696,112,-15244,400,23,-308,1,0
22.02467,5736,12,-15652,400,35,-73,1,0
22.05791,5884,-68,-15720,400,-333,6,1,0
22.05791,5872,72,-15280,416,-263,47,1,0
22.10776,5804,40,-15320,416,25,302,1,0
22.14101,5892,32,-15592,400,-208,455,1,0
22.20748,5948,48,-15480,400,-365,847,1,0
22.24074,5956,64,-15456,416,-256,894,1,0
22.25736,5948,24,-15596,368,-605,924,1,0
22.29061,6076,28,-15500,416,-523,1015,1,0
22.32385,6156,184,-15392,384,-688,1109,1,0
22.32385,6000,292,-15196,432,-860,895,1,0
22.37372,6076,312,-15180,416,-671,627,1,0
22.37372,6356,216,-15184,416,-937,362,1,0
22.4402,6464,240,-15276,416,-758,643,1,0
22.4402,6428,268,-15216,432,-726,746,1,0
22.47345,6304,340,-15144,400,-432,760,1,0
22.50669,6472,336,-15336,384,-713,639,1,0
22.55655,6284,420,-15300,432,-734,808,1,0
22.55655,6504,348,-15188,416,-489,909,1,0
22.5898,6532,464,-15140,400,-385,935,1,0
22.62304,6588,464,-15120,400,-475,954,1,0
22.65629,6716,392,-15336,400,-642,954,1,0
22.70615,6716,448,-15100,416,-614,818,1,0
22.7394,6800,512,-14992,432,-591,925,1,0
22.7394,6900,568,-14996,416,-636,616,1,0
22.77264,6752,624,-14832,416,-625,656,1,0
22.80589,6992,468,-15004,384,-804,214,1,0
22.85575,6988,560,-15284,400,-832,629,1,0
22.889,7108,664,-14780,416,-820,1083,1,0
22.889,6992,736,-14308,432,-356,815,1,0
22.95548,7048,664,-14984,416,-315,97,1,0
22.97211,7120,452,-15248,400,-1227,162,1,0
23.00536,7084,724,-14928,416,-1061,675,1,0
23.03859,7080,904,-14704,400,-111,1137,1,0
23.07183,7260,812,-14620,416,-400,882,1,0
23.08846,7536,760,-14604,384,-774,-209,1,0
23.18817,7180,840,-14692,416,-1056,414,1,0
23.2048,7376,924,-14740,400,468,853,1,0
23.22141,7620,992,-14876,400,-56,442,1,0
23.22141,7808,924,-14892,432,-1129,137,1,0
23.30451,7396,896,-14760,416,-1492,-135,1,0
23.30451,6996,872,-14500,400,-599,177,1,0
23.33776,7372,928,-14564,432,-99,630,1,0
23.33776,7600,1088,-14588,448,-247,-33,1,0
23.371,7624,928,-15132,432,-998,159,1,0
23.42086,7500,1000,-15032,384,-1306,383,1,0
23.42086,7300,1060,-14640,368,-767,1281,1,0
23.45411,7408,1156,-14396,400,-78,430,1,0
23.48735,7500,1152,-14560,400,-509,159,1,0
23.55345,7616,1120,-14916,416,-574,284,1,0
23.57046,7676,1144,-14776,384,-824,408,1,0
23.6037,7592,1320,-14600,416,-982,409,1,0
23.63694,7644,1308,-14372,400,-519,53,1,0
23.65357,7740,1264,-14604,368,-308,492,1,0
23.67019,7560,1284,-14184,416,-468,504,1,0
23.72006,7628,1284,-14188,416,-202,-1015,1,0
23.72006,7308,1204,-14724,368,-235,-148,1,0
23.78654,7584,1268,-15168,368,-56,866,1,0
23.78654,7788,1192,-14296,416,-478,888,1,0
23.83642,7980,1260,-14400,400,-753,330,1,0
23.86965,7924,1340,-14484,384,-754,605,1,0
23.90289,7916,1188,-14376,400,-724,39,1,0
23.90289,7636,1284,-14400,384,-290,-468,1,0
23.93613,7724,1424,-14576,400,-544,590,1,0
23.96937,7912,1420,-14360,400,-743,417,1,0
24.01924,7796,1456,-14308,400,-515,-276,1,0
24.05248,7516,1432,-14452,464,-138,-773,1,0
24.11896,7828,1472,-14572,400,-396,-294,1,0
24.15222,7836,1420,-14528,416,-276,546,1,0
24.15222,7868,1512,-14400,416,31,830,1,0
24.20208,7896,1356,-14492,432,-751,237,1,0
24.20208,8220,1344,-14468,416,-453,-207,1,0
24.23532,7660,1424,-14400,416,67,-336,1,0
24.26856,7804,1368,-14396,432,89,211,1,0
24.28518,7840,1380,-14644,432,-611,558,1,0
24.35165,7844,1532,-14572,400,-840,523,1,0
24.3849,8004,1668,-14660,400,-617,576,1,0
24.40153,8000,1568,-14360,416,-738,487,1,0
24.43477,7860,1524,-13956,416,-912,-269,1,0
24.46801,7804,1588,-14180,384,-915,-1473,1,0
24.50125,7808,1748,-14524,400,-411,-939,1,0
24.50125,7640,1876,-14568,416,-33,1226,1,0
24.5345,7888,1740,-14072,400,330,991,1,0
24.56773,7900,1596,-14228,416,-238,77,1,0
24.6176,7904,1424,-14504,432,-1197,-20,1,0
24.65084,7864,1408,-14140,432,-905,-217,1,0
24.65084,7896,1636,-14380,432,-68,20,1,0
24.70071,8192,1620,-14680,400,-381,-213,1,0
24.71733,7848,1668,-14452,400,-850,116,1,0
24.76719,8016,1708,-14148,368,-498,-89,1,0
24.76719,7664,1804,-14396,432,-69,-654,1,0
24.81705,8012,1796,-14732,432,-482,56,1,0
24.88353,7776,1848,-14308,416,-525,206,1,0
24.90016,7888,1704,-14468,400,-446,299,1,0
24.91679,7860,1816,-14288,400,-103,330,1,0
24.95003,7796,1532,-14192,400,-137,137,1,0
24.98327,7860,1728,-14100,416,-225,-288,1,0
25.01651,7912,1636,-14316,416,-445,-379,1,0
25.03313,7912,1820,-14348,368,59,-215,1,0
25.06638,8060,1752,-14732,432,-163,935,1,0
25.09962,7916,1716,-13732,432,-625,297,1,0
25.09962,7864,1792,-13812,416,-678,-434,1,0
25.1661,7692,1928,-14816,384,-185,-639,1,0
25.18272,7848,1768,-14916,432,-368,279,1,0
25.21598,7732,1888,-13908,368,-140,894,1,0
25.24922,8160,1844,-13912,416,1013,-157,1,0
25.28243,8008,1356,-14524,432,570,-343,1,0
25.29908,8024,1540,-14712,400,-1061,-369,1,0
25.33233,7828,1672,-14212,416,-1204,-352,1,0
25.36557,7764,1820,-14064,432,30,60,1,0
25.39881,7912,1624,-14376,432,456,-137,1,0
25.4819,7808,1736,-14420,384,-257,-148,1,0
25.4819,7804,1668,-14296,432,-743,-453,1,0
25.49853,7732,1708,-14304,384,-472,-331,1,0
25.51515,7740,1700,-14300,416,27,-76,1,0
25.5484,7876,1696,-14360,400,-30,-34,1,0
25.58164,7760,1704,-14400,416,102,140,1,0
25.63151,7912,1588,-14396,416,6,260,1,0
25.63151,7792,1612,-14692,400,-433,391,1,0
25.698,7664,1540,-14552,432,-675,100,1,0
25.698,7784,1636,-14176,432,-649,-445,1,0
25.73124,7888,1744,-14372,400,-253,-551,1,0
25.7811,7768,1728,-14588,448,-265,-201,1,0
25.81433,7740,1704,-14492,416,-5,242,1,0
25.81433,7744,1516,-14396,416,-510,25,1,0
25.88083,7832,1760,-14316,384,-913,-511,1,0
25.89745,7732,1836,-14604,432,-615,-414,1,0
25.93068,7724,1696,-14264,464,-72,-127,1,0
25.96393,7716,1828,-14708,400,390,64,1,0
25.99717,7832,1576,-14712,432,-24,-89,1,0
26.03041,7740,1752,-14672,416,-897,401,1,0
26.04703,7692,1848,-14248,400,-244,720,1,0
26.08027,7604,1532,-13940,416,303,41,1,0
26.11351,7800,1516,-14592,400,343,-235,1,0
26.14675,7888,1524,-14764,400,-2,501,1,0
26.16337,7692,1636,-14528,416,-154,304,1,0
26.18,7868,1692,-14388,416,-552,-159,1,0
26.22985,7960,1632,-14372,416,-838,-492,1,0
26.26311,7844,1716,-14468,400,-124,-165,1,0
26.29635,7724,1664,-14308,400,178,-87,1,0
26.3296,7752,1496,-14264,416,-69,-107,1,0
26.34622,7780,1608,-14244,432,208,388,1,0
26.37946,7824,1500,-14472,400,48,64,1,0
26.4127,7708,1464,-14400,432,-388,20,1,0
26.44593,7908,1376,-14464,432,-752,-232,1,0
26.4958,7792,1512,-14248,400,-637,-182,1,0
26.52904,7820,1544,-14560,416,-688,-140,1,0
26.52904,7820,1776,-14348,368,-230,6,1,0
26.56228,7584,1536,-14320,400,146,-13,1,0
26.61214,7816,1440,-14496,400,52,44,1,0
26.62877,7756,1568,-14420,416,232,-333,1,0
26.67863,7716,1604,-14488,400,235,33,1,0
26.67863,7768,1676,-14500,432,-31,110,1,0
26.71188,7744,1320,-14380,400,18,255,1,0
26.74512,7940,1452,-14512,432,134,-187,1,0
26.79499,7728,1464,-14728,432,-358,-164,1,0
26.81161,7780,1472,-14588,464,-840,-357,1,0
26.8448,7740,1508,-14572,384,-587,-197,1,0
26.86148,7736,1564,-14388,432,155,109,1,0
26.89473,7728,1384,-14500,400,493,-34,1,0
26.92797,7796,1232,-14444,432,-40,58,1,0
26.97769,7824,1292,-14488,432,-812,-550,1,0
26.97769,7684,1428,-14536,432,-732,-478,1,0
27.04432,7664,1544,-14544,416,-39,315,1,0
27.06094,7932,1572,-14784,448,-433,595,1,0
27.12743,7648,1424,-14380,432,-748,201,1,0
27.12743,7572,1420,-14068,416,-474,-649,1,0
27.16067,7748,1644,-14912,384,-118,-603,1,0
27.19392,7676,1452,-14896,432,-241,367,1,0
27.19392,7692,1404,-14244,416,-273,262,1,0
27.24331,7736,1456,-14176,400,167,-393,1,0
27.27656,7760,1432,-14520,432,-108,-543,1,0
27.30975,7732,1364,-14644,432,-405,179,1,0
27.34296,7664,1332,-14464,400,-321,-101,1,0
27.39279,7796,1420,-14680,368,-501,-184,1,0
27.39279,7656,1516,-14460,400,-676,-80,1,0
27.42601,7572,1488,-14344,400,-341,-218,1,0
27.45923,7548,1416,-14540,400,174,-334,1,0
27.54227,7680,1516,-14508,416,135,-67,1,0
27.54227,7732,1348,-14692,416,-25,-51,1,0
27.57549,7848,1340,-14660,432,-792,-140,1,0
27.60871,7620,1384,-14400,432,-944,-19,1,0
27.60871,7556,1512,-14108,448,266,120,1,0
27.64193,7764,1464,-14572,432,847,143,1,0
27.69176,7700,1264,-14776,448,-440,-420,1,0
27.72497,7616,1292,-14572,448,-1268,-531,1,0
27.72497,7552,1532,-14532,432,22,-28,1,0
27.7748,7580,1360,-14472,432,860,618,1,0
27.79141,7692,1128,-14544,416,335,262,1,0
27.84124,7676,1200,-14508,400,-654,-540,1,0
27.87445,7608,1400,-14580,400,-718,-524,1,0
27.90805,7560,1392,-14768,432,-196,-27,1,0
27.92466,7688,1428,-14832,400,-294,-48,1,0
27.95788,7568,1296,-14632,416,-455,365,1,0
27.9911,7580,1436,-14596,416,-352,139,1,0
28.02451,7500,1412,-14764,400,-771,244,1,0
28.04115,7668,1556,-14668,432,-818,315,1,0
28.05779,7656,1560,-14432,448,-9,354,1,0
28.1077,7528,1384,-14192,416,215,222,1,0
28.14097,7600,1332,-14572,432,368,-150,0,0
28.17425,7760,1208,-14864,416,-144,-269,0,0
28.20753,7688,1376,-14636,400,-906,66,0,0
28.25743,7584,1504,-14420,400,-956,-36,0,0
28.25743,7604,1512,-14424,432,-228,-190,0,0
28.2907,7664,1424,-14380,416,529,-65,0,0
28.32398,7696,1216,-14752,416,375,223,0,0
28.35726,7704,1184,-14616,432,-1051,-419,0,0
28.39053,7592,1444,-14712,464,-1542,-257,0,0
28.44044,7540,1648,-14380,400,-603,287,0,0
28.44044,7392,1400,-14308,416,393,-214,0,0
28.47371,7672,1284,-14888,464,563,102,0,0
28.50699,7708,1276,-14952,432,-355,448,0,0
28.5569,7608,1300,-14572,432,-1081,-148,0,0
28.5569,7684,1436,-14324,416,-1006,-677,0,0
28.59017,7584,1500,-14520,432,-63,-319,0,0
28.65613,7592,1552,-14848,416,671,159,0,0
28.65613,7580,1272,-14720,432,-121,283,0,0
28.67278,7388,1312,-14572,400,-723,-37,0,0
28.73927,7388,1344,-14484,432,-490,-477,0,0
28.77253,7532,1480,-14612,432,31,-358,0,0
28.77253,7604,1332,-14892,400,-65,35,0,0
28.80579,7596,1396,-14472,416,-634,233,0,0
28.85568,7644,1420,-14400,416,-510,18,0,0
28.88893,7620,1280,-14404,432,-86,-179,0,0
28.88893,7420,1240,-14660,400,-135,-149,0,0
28.95544,7540,1436,-14728,416,-105,-130,0,0
28.97207,7560,1364,-14768,416,-211,97,0,0
29.00512,7528,1480,-14420,400,-375,-122,0,0
29.03839,7532,1408,-14416,432,-94,-236,0,0
29.07146,7596,1304,-14808,432,-247,-54,0,0
29.10478,7748,1396,-14828,432,-594,608,0,0
29.1214,7676,1424,-14488,416,-643,384,0,0
29.15462,7388,1336,-14284,432,-75,-312,0,0
29.18785,7504,1340,-14864,432,214,-237,0,0
29.22108,7472,1316,-14704,448,-55,254,0,0
29.25431,7540,1244,-14576,432,-435,-24,0,0
29.30415,7600,1300,-14492,448,-563,-268,0,0
29.30415,7584,1484,-14460,416,-345,-294,0,0
29.33739,7572,1416,-14476,416,57,-69,0,0
29.37062,7480,1280,-14692,400,-7,-199,0,0
29.42046,7576,1340,-14740,416,-258,38,0,0
29.45369,7524,1380,-14616,416,-531,-105,0,0
29.45369,7420,1404,-14480,416,-624,6,0,0
29.52015,7424,1280,-14496,416,-612,-353,0,0
29.53676,7456,1424,-14600,416,-88,-156,0,0
29.56999,7460,1336,-14544,432,317,42,0,0
29.60322,7488,1212,-14640,432,211,-112,0,0
29.65306,7492,1272,-14616,432,-283,-394,0,0
29.65306,7372,1320,-14500,416,-376,-681,0,0
29.66967,7220,1184,-14488,432,7,-638,0,0
29.70291,7368,1192,-14684,432,275,-1454,0,0
29.78597,7248,1156,-14744,432,-197,-1006,0,0
29.80259,7180,1296,-14760,448,-115,-448,0,0
29.83582,7224,1292,-14564,432,-307,-940,0,0
29.86905,7208,1424,-14892,416,418,-722,0,0
29.86905,7068,1124,-14908,416,582,-457,0,0
29.90228,7124,1048,-14852,400,12,-493,0,0
29.93551,7072,1124,-14808,416,-415,-335,0,0
29.96873,7036,1084,-14948,384,-342,-553,0,0
30.01858,7028,1184,-14908,416,-437,-972,0,0
30.0518,6832,1144,-14972,448,-341,-597,0,0
30.0518,6904,1064,-14804,416,-381,-795,0,0
30.08504,6948,1136,-14996,432,-198,-537,0,0
30.13488,6872,1136,-14924,432,-296,216,0,0
30.20134,6744,1224,-14540,432,-28,-610,0,0
30.20134,6708,1084,-14696,448,-141,-1512,0,0
30.23457,6768,1180,-15188,400,-59,-1241,0,0
30.25119,6740,1204,-15308,416,233,-443,0,0
30.26779,6620,1056,-15096,432,490,-292,0,0
30.30103,6684,1088,-15012,416,188,-577,0,0
30.35086,6884,1120,-15184,432,-331,-309,0,0
30.3841,6676,992,-15280,416,-377,-392,0,0
30.3841,6368,900,-15240,448,-32,-520,0,0
30.41733,6548,984,-14956,416,296,-726,0,0
30.46716,6512,984,-15100,432,-132,-154,0,0
30.5004,6612,1008,-15312,432,-293,-413,0,0
30.53361,6280,884,-15340,432,-446,-588,0,0
30.61667,6372,776,-15032,416,-310,-464,0,0
30.61667,6256,872,-14952,416,-201,-37,0,0
30.6333,6356,948,-15040,400,-217,37,0,0
30.6333,6416,1000,-15264,416,36,-415,0,0
30.68315,6416,976,-15368,432,-224,-679,0,0
30.71637,6192,944,-15080,432,-447,-290,0,0
30.73299,6244,980,-15112,432,-349,-128,0,0
30.76622,6332,952,-15120,416,-42,-111,0,0
30.83266,6284,856,-15500,432,-212,-145,0,0
30.84929,6212,888,-15396,416,-93,-12,0,0
30.88251,6300,728,-15068,432,68,182,0,0
30.91573,6212,800,-15216,448,112,-700,0,0
30.94895,6152,804,-15296,416,-506,-332,0,0
30.94895,6280,932,-15188,432,-298,-283,0,0
31.03203,6140,884,-15344,400,43,-177,0,0
31.03203,6284,716,-15344,448,275,-343,0,0
31.06527,6084,816,-15356,448,-211,-271,0,0
31.0985,6028,816,-15076,448,-401,-539,0,0
31.13173,5884,772,-15284,400,227,-189,0,0
31.13173,6300,784,-15524,416,376,1341,0,0
31.18155,6316,576,-15040,432,-68,-724,0,0
31.2148,6096,612,-15216,432,-790,-1053,0,0
31.24803,5908,716,-15392,448,-824,-839,0,0
31.24803,6060,740,-15464,448,-134,-290,0,0
31.29788,6040,740,-15416,448,472,-408,0,0
31.3311,5960,688,-15316,432,43,-385,0,0
31.36433,5988,680,-15364,400,-489,-320,0,0
31.39756,5960,688,-15200,432,-399,-523,0,0
31.4308,5636,576,-15288,416,-291,-164,0,0
31.48064,6208,632,-15576,432,-319,223,0,0
31.48064,5820,696,-15272,448,-283,-847,0,0
31.51387,5896,628,-15156,400,-86,-775,0,0
31.5471,5804,620,-15272,432,173,-778,0,0
31.58033,5776,624,-15564,432,-177,-127,0,0
31.63018,5792,684,-15612,400,-380,-366,0,0
31.66341,5724,728,-15452,432,-234,-397,0,0
31.69664,5692,516,-15336,400,269,-195,0,0
31.71325,5800,500,-15484,448,132,-156,0,0
31.74648,5660,624,-15476,432,188,-321,0,0
31.76311,5652,540,-15588,384,5,-508,0,0
31.81294,5596,452,-15320,464,-215,-202,0,0
31.81294,5616,512,-15388,448,326,90,0,0
31.84618,5572,332,-15556,432,315,120,0,0
31.89601,5860,396,-15608,400,35,486,0,0
31.92925,5680,512,-15428,432,99,-394,0,0
31.9957,5600,348,-15416,448,-509,-165,0,0
31.9957,5568,408,-15472,432,13,-204,0,0
32.04555,5584,468,-15428,432,348,125,0,0
32.04555,5436,404,-15340,448,355,115,0,0
32.06216,5516,360,-15452,416,84,-207,0,0
32.112,5656,196,-15680,384,-291,-581,0,0
32.112,5772,272,-15704,448,-704,-302,0,0
32.19508,5048,224,-14956,416,-206,219,0,0
32.19508,5756,264,-15408,432,634,-73,0,0
32.22831,5428,200,-15720,464,206,-418,0,0
32.26154,5356,236,-15676,432,-453,-344,0,0
32.29477,5512,176,-15292,448,38,-147,0,0
32.29477,5456,176,-15576,416,79,-194,0,0
32.34461,5460,84,-15412,400,-173,-359,0,0
32.37784,5412,136,-15616,448,215,-15,0,0
32.41107,5580,-36,-15828,432,-176,-92,0,0
32.46091,5536,60,-15692,416,-178,-124,0,0
32.46091,5444,100,-15660,416,-53,-90,0,0
32.52737,5480,184,-15528,448,-158,150,0,0
32.52737,5372,116,-15464,448,-272,6,0,0
32.5606,5416,-108,-15600,432,-448,-242,0,0
32.59383,5392,-32,-15452,464,-264,-45,0,0
32.62706,5444,40,-15460,400,-310,76,0,0
32.64367,5500,60,-15456,432,-411,-198,0,0
32.6769,5416,4,-15516,416,-208,-177,0,0
32.71012,5380,84,-15528,448,-269,-63,0,0
32.74335,5384,268,-15640,448,31,19,0,0
32.79319,5400,28,-15548,416,-185,-98,0,0
32.85965,5436,12,-15560,400,-234,-118,0,0
32.85965,5488,64,-15516,464,-143,-13,0,0
32.87627,5468,32,-15536,432,-249,-22,0,0
32.89289,5452,64,-15572,432,-80,167,0,0
32.94273,5448,-52,-15652,432,-38,154,0,0
32.94273,5308,0,-15500,448,-312,33,0,0
33.00913,5392,24,-15448,448,-226,-23,0,0
33.04242,5376,-60,-15468,416,-557,-267,0,0
33.04242,5372,40,-15744,416,-551,-82,0,0
33.09225,5528,20,-15544,464,-295,377,0,0
33.12548,5444,80,-14992,448,-396,-238,0,0
33.15871,5356,16,-15544,448,-128,-457,0,0
33.17533,5488,-36,-15904,432,-77,83,0,0
33.20855,5396,-40,-15608,448,-418,-332,0,0
33.24178,5288,-12,-15252,448,-282,-103,0,0
33.275,5376,28,-15432,432,-62,64,0,0
33.30824,5456,64,-15492,448,-278,-32,0,0
33.34146,5420,-28,-15596,432,-31,369,0,0
33.3913,5408,-84,-15592,432,-149,568,0,0
33.42452,5516,-148,-15668,448,-267,337,0,0
33.42452,5388,28,-15512,432,-301,11,0,0
33.45776,5460,0,-15692,448,-633,-37,0,0
33.49099,5464,-4,-15468,416,-501,95,0,0
33.50761,5444,4,-15468,416,-382,-301,0,0
33.57405,5448,-92,-15696,448,-150,7,0,0
33.57405,5468,-60,-15504,432,-215,21,0,0
33.59068,5328,52,-15496,432,-348,-17,0,0
33.65713,5548,-24,-15480,448,-116,-9,0,0
33.69035,5480,52,-15516,432,-167,-71,0,0
33.77343,5444,20,-15612,448,-199,76,0,0
33.77343,5508,-80,-15456,432,-83,74,0,0
33.83988,5444,-56,-15468,416,-92,286,0,0
33.83988,5560,-80,-15524,448,27,64,0,0
33.87312,5508,8,-15632,448,-249,178,0,0
33.88974,5440,-40,-15708,448,-198,159,0,0
33.92297,5448,-156,-15552,416,-474,-218,0,0
33.92297,5500,-56,-15356,416,-152,-268,0,0
33.95619,5484,-188,-15556,416,-450,-652,0,0
33.98942,5532,-40,-15928,448,-562,82,0,0
34.02265,5448,-24,-15216,416,-529,89,0,0
34.05588,5364,4,-15208,448,-224,-370,0,0
34.10571,5396,-40,-15580,416,84,-462,0,0
34.13895,5412,-116,-15932,416,-155,-109,0,0
34.2054,5432,-92,-15492,448,-157,52,0,0
34.22201,5424,-108,-15280,464,-80,66,0,0
34.23863,5552,8,-15480,464,-3,-80,0,0
34.25525,5452,-80,-15624,432,-300,-94,0,0
34.32169,5332,-80,-15552,432,-229,298,0,0
34.33831,5380,-120,-15576,432,-206,149,0,0
34.40478,5408,-72,-15584,448,-493,26,0,0
34.40478,5472,-20,-15600,464,-372,11,0,0
34.438,5496,-12,-15628,432,-624,-121,0,0
34.438,5452,12,-15688,432,-375,-10,0,0
34.47123,5428,-44,-15484,432,-298,-90,0,0
34.50446,5548,-56,-15608,432,-433,159,0,0
34.50446,5544,-12,-15468,432,7,151,0,0
34.55426,5376,-108,-15564,448,-200,16,0,0
34.58754,5468,-152,-15500,432,-276,85,0,0
34.62077,5544,-56,-15640,432,-189,147,0,0
34.654,5436,-108,-15428,432,-30,-99,0,0
34.70383,5516,-160,-15640,464,-137,154,0,0
34.70383,5460,-72,-15452,448,-7,212,0,0
34.73707,5508,-272,-15444,432,-135,132,0,0
34.77029,5476,-148,-15352,416,-202,108,0,0
34.82014,5556,-120,-15464,432,-131,27,0,0
34.82014,5492,12,-15460,432,-418,-188,0,0
34.85336,5440,-108,-15716,432,-454,-16,0,0
34.93642,5528,-188,-15404,432,-794,55,0,0
34.93642,5424,-56,-14996,416,-290,-339,0,0
34.95294,5560,-236,-15804,432,130,-273,0,0
34.98629,5340,-188,-15884,432,-335,-193,0,0
35.03611,5408,-208,-15476,448,-512,-117,0,0
35.03611,5584,0,-15388,416,29,47,0,0
35.11918,5532,-136,-15620,448,24,-146,0,0
35.11918,5512,-108,-15640,416,-268,7,0,0
35.13581,5344,-176,-15616,448,-180,43,0,0
35.18565,5480,-168,-15764,448,-22,8,0,0
35.21888,5428,-68,-15552,464,-309,121,0,0
35.26872,5532,-132,-15532,400,-485,-101,0,0
35.26872,5468,-120,-15560,448,-586,-129,0,0
35.30148,5476,-52,-15692,464,160,-115,0,0
35.33471,5284,-276,-15404,464,-450,205,0,0
35.36795,5544,-132,-15512,448,-220,59,0,0
35.4178,5420,-92,-15512,416,-44,-73,0,0
35.45102,5572,-132,-15400,416,55,-50,0,0
35.5341,5504,-128,-15572,464,-276,107,0,0
35.5341,5424,-252,-15452,432,-174,37,0,0
35.56733,5560,-116,-15568,448,-440,19,0,0
35.58395,5456,-108,-15292,448,-228,227,0,0
35.60057,5548,-148,-15460,448,-36,256,0,0
35.63379,5536,-176,-15700,448,-333,29,1,0
35.6504,5596,-76,-15684,432,-459,-21,1,0
35.71686,5500,-80,-15412,432,-438,-91,1,0
35.71686,5680,-148,-15756,448,-595,-131,1,0
35.76671,5612,-124,-15428,464,-821,136,1,0
35.78333,5528,32,-14952,464,-143,-89,1,0
35.81656,5524,-180,-15516,432,164,-125,1,0
35.86641,5468,-240,-15664,432,-469,-263,1,0
35.86641,5436,-168,-15496,432,-326,123,1,0
35.89964,5500,-184,-15448,448,-176,-164,1,0
35.93287,5616,-36,-15512,448,-21,-46,1,0
35.98272,5636,-104,-15736,448,-139,-20,1,0
36.01594,5516,-240,-15496,464,-74,188,1,0
36.04918,5572,-236,-15768,432,-373,133,1,0
36.09902,5628,-92,-15520,432,-711,-160,1,0
36.11563,5504,-28,-15488,432,-226,340,1,0
36.13223,5656,-260,-15612,432,-552,-132,1,0
36.18209,5668,-88,-15712,432,-571,99,1,0
36.19871,5556,-100,-15524,432,-362,-59,1,0
36.19871,5552,-124,-15576,432,-359,2,1,0
36.28178,5600,-48,-15368,416,-347,23,1,0
36.31501,5528,-136,-15496,448,-233,-31,1,0
36.31501,5552,-160,-15780,448,-158,81,1,0
36.34824,5500,-148,-15608,432,-87,85,1,0
36.38147,5584,-208,-15564,464,-79,23,1,0
36.4313,5564,-228,-15380,448,-326,14,1,0
36.4313,5500,-136,-15436,464,-200,145,1,0
36.46454,5524,-52,-15564,480,-211,-110,1,0
36.49776,5592,-52,-15560,416,-329,-149,1,0
36.53099,5632,-36,-15724,464,-520,-131,1,0
36.58084,5604,-60,-15752,416,-709,117,1,0
36.61406,5724,-88,-15180,416,-664,-35,1,0
36.64729,5452,-128,-15360,416,-188,-211,1,0
36.64729,5572,-168,-15800,432,-114,-116,1,0
36.69713,5468,-108,-15704,432,-502,-123,1,0
36.76359,5496,-72,-15280,448,-237,-39,1,0
36.79682,5468,-104,-15396,416,43,108,1,0
36.81343,5708,-116,-15492,448,-188,-161,1,0
36.83004,5520,-84,-15392,464,-197,-1,1,0
36.87989,5544,-248,-15488,464,13,180,1,0
36.91313,5528,-168,-15664,432,-428,-22,1,0
36.91313,5460,56,-15752,448,-439,-6,1,0
36.97958,5560,-124,-15688,432,-553,613,1,0
36.97958,5600,4,-15572,448,-211,357,1,0
37.02943,5600,12,-15480,432,-470,168,1,0
37.02943,5524,-68,-15464,432,-500,529,1,0
37.09588,5764,-184,-15444,432,-384,612,1,0
37.09588,5692,-20,-15164,464,-497,54,1,0
37.12912,5604,-180,-15484,464,-252,243,1,0
37.17897,5604,-172,-15476,432,-323,723,1,0
37.21219,5848,-40,-15380,448,-171,556,1,0
37.21219,5744,20,-15488,432,-439,376,1,0
37.24543,5756,16,-15408,400,-482,443,1,0
37.29528,5900,132,-15352,448,-477,788,1,0
37.32851,5892,-36,-15396,448,-662,725,1,0
37.36174,5932,80,-15388,432,-708,497,1,0
37.39496,6040,64,-15396,432,-827,389,1,0
37.41159,6096,72,-15324,432,-734,694,1,0
37.44482,6160,192,-15092,480,-740,512,1,0
37.47805,6060,200,-15248,432,-496,262,1,0
37.51128,6096,76,-15736,464,-505,557,1,0
37.51128,6096,176,-15540,416,-614,569,1,0
37.54451,6196,268,-15256,448,-811,734,1,0
37.62759,6244,196,-15192,448,-826,560,1,0
37.62759,6296,360,-15144,448,-659,394,1,0
37.66082,6296,348,-15100,416,-685,467,1,0
37.69405,6192,284,-15196,448,-664,559,1,0
37.69405,6336,420,-15212,432,-931,715,1,0
37.77712,6324,484,-14920,448,-389,928,1,0
37.77712,6396,428,-15088,464,-271,862,1,0
37.81036,6488,284,-15368,448,-924,518,1,0
37.84358,6448,448,-15168,432,-870,515,1,0
37.84358,6392,404,-15000,448,-759,446,1,0
37.92666,6708,528,-15024,432,-318,623,1,0
37.92666,6760,584,-15076,480,-805,294,1,0
37.9765,6612,568,-15128,432,-1072,572,1,0
37.99312,6580,620,-15020,464,-769,640,1,0
38.04297,6588,588,-15028,432,-360,616,1,0
38.04297,6788,632,-15000,416,-415,731,1,0
38.07619,6796,688,-15044,448,-387,616,1,0
38.10942,6788,608,-14860,448,-594,512,1,0
38.19249,7044,784,-15004,448,-439,587,1,0
38.20793,7032,692,-15216,464,-412,1054,1,0
38.22573,6940,716,-14572,448,-431,1116,1,0
38.27557,6928,624,-14460,432,-524,277,1,0
38.27557,6880,656,-15008,432,-699,84,1,0
38.3088,7040,740,-15076,448,-501,296,1,0
38.34204,7008,760,-14680,448,-388,457,1,0
38.34204,7000,816,-14640,464,-417,587,1,0
38.37527,7384,756,-14872,432,-513,279,1,0
38.4085,7096,808,-14916,464,-347,123,1,0
38.45834,7108,852,-15048,464,-561,744,1,0
38.47496,7280,852,-15144,432,-702,576,1,0
38.52481,7272,876,-14820,432,-933,389,1,0
38.52481,7156,1084,-14764,448,-780,206,1,0
38.57465,7180,904,-14756,464,-912,840,1,0
38.59127,7408,1020,-14604,432,32,498,1,0
38.64111,7296,912,-14780,432,-260,738,1,0
38.64111,7464,1008,-14480,432,-538,626,1,0
38.70758,7624,928,-14668,464,-784,-90,1,0
38.75739,7300,996,-14804,448,-758,254,1,0
38.75739,7404,1000,-14676,432,-627,291,1,0
38.77401,7360,1080,-14616,464,-616,261,1,0
38.82387,7432,1208,-14752,448,-715,104,1,0
38.85709,7492,1360,-14752,464,-233,455,1,0
38.85709,7608,1160,-14780,448,-124,774,1,0
38.90693,7376,1288,-14356,464,-553,327,1,0
38.94017,7416,1160,-14496,400,-909,-295,1,0
38.97338,7400,1300,-14596,432,-129,-172,1,0
39.00663,7628,1080,-14668,480,419,551,1,0
39.05647,7648,1160,-14484,480,-75,459,1,0
39.05647,7784,1072,-14548,448,-418,343,1,0
39.0897,7724,1184,-14424,416,-245,155,1,0
39.12294,7536,1188,-14556,480,-237,72,1,0
39.15616,7688,1108,-14824,448,-415,164,1,0
39.15616,7592,1164,-14932,448,-675,736,1,0
39.23923,7644,1152,-14500,448,-709,505,1,0
39.23923,7488,1216,-14296,464,-675,125,1,0
39.27247,7656,1280,-14492,448,-144,194,1,0
39.3057,7656,1236,-14484,416,-19,194,1,0
39.35554,7772,1268,-14384,432,-284,142,1,0
39.38877,7832,1280,-14456,480,-568,168,1,0
39.38877,7516,1320,-14532,496,-679,298,1,0
39.42201,7664,1296,-14492,464,-320,206,1,0
39.45524,7672,1200,-14600,480,-79,172,1,0
39.50507,7768,1240,-14648,496,-110,318,1,0
39.53831,7872,1140,-14544,464,-391,95,1,0
39.57153,7992,1176,-14512,448,-773,545,1,0
39.57153,7764,1292,-14172,432,-604,594,1,0
39.62139,7708,1184,-14092,464,-381,-279,1,0
39.65461,8088,1264,-14576,464,-50,-636,1,0
39.68784,7672,1088,-14552,464,-208,-411,1,0
39.68784,7876,1380,-14556,400,-377,486,1,0
39.72108,7924,1276,-14420,448,-630,449,1,0
39.75431,7980,1356,-14600,464,-445,162,1,0
39.80415,7860,1276,-14468,448,-217,216,1,0
39.83738,7844,1248,-14324,432,-103,324,1,0
39.87061,7928,1340,-14420,448,-74,231,1,0
39.92045,8144,1272,-14328,464,-629,-412,1,0
39.92045,7832,1304,-14592,448,-846,221,1,0
39.95368,7892,1436,-14404,432,-559,350,1,0
39.98691,7892,1384,-14576,464,-213,509,1,0
40.02014,8036,1436,-14340,464,-200,471,1,0
40.03675,7928,1356,-14208,448,-832,220,1,0
40.0865,8004,1448,-14200,432,-1029,-143,1,0
40.10321,7896,1552,-14368,448,-216,-90,1,0
40.13645,7876,1332,-14152,432,-35,-220,1,0
40.16967,8048,1356,-14472,496,-169,-98,1,0
40.21952,8120,1552,-14380,464,-410,38,1,0
40.21952,8100,1464,-14776,448,-737,197,1,0
40.25274,8100,1580,-14772,464,-828,552,1,0
40.31921,7828,1316,-13864,464,-1066,-194,1,0
40.31921,7740,1468,-13988,464,193,-1191,1,0
40.36905,7824,1440,-14732,432,387,-639,1,0
40.40229,7992,1608,-15056,464,54,609,1,0
40.43552,8012,1436,-14508,464,-467,926,1,0
40.43552,7996,1404,-13932,448,-570,183,1,0
40.48537,8048,1372,-13928,464,-231,-668,1,0
40.51859,8064,1544,-14656,464,-313,-248,1,0
40.55182,7916,1508,-14772,464,-383,362,1,0
40.55182,8060,1576,-14332,464,-416,526,1,0
40.61827,7920,1516,-13804,448,-156,-8,1,0
40.63488,8008,1540,-14092,480,-273,-497,1,0
40.66811,8092,1492,-14624,432,-391,-172,1,0
40.70134,8128,1460,-14412,464,-25,376,1,0
40.73458,8044,1444,-14124,464,-149,230,1,0
40.76781,8044,1376,-14320,464,-388,-123,1,0
40.76781,7988,1360,-14320,448,-721,-326,1,0
40.85088,7880,1392,-14056,464,-86,-376,1,0
40.85088,7976,1476,-14296,464,105,-218,1,0
40.88412,7928,1516,-14516,432,-442,52,1,0
40.93397,7856,1532,-14320,464,-464,-198,1,0
40.9672,7792,1404,-14328,416,-122,-549,1,0
40.9672,7996,1480,-14500,448,-312,-507,1,0
41.00043,7848,1476,-14604,464,-545,-88,1,0
41.05029,7764,1416,-14448,448,-568,-12,1,0
41.0669,7848,1524,-14304,480,183,-98,1,0
41.11674,7824,1452,-14632,480,-90,-212,1,0
41.14998,8016,1420,-14628,464,-434,-231,1,0
41.1832,8032,1556,-14488,432,-624,262,1,0
41.1832,7832,1552,-14176,464,-444,258,1,0
41.23305,7560,1316,-14036,432,60,-292,1,0
41.26623,7820,1404,-14476,448,585,-379,1,0
41.29951,7880,1420,-14596,480,75,-63,1,0
41.29951,7832,1472,-14364,432,-257,84,1,0
41.33274,7872,1412,-14328,464,-551,-576,1,0
41.38258,7792,1460,-14396,416,-909,-655,1,0
41.41581,7796,1488,-14448,432,-40,-47,1,0
41.44904,7736,1472,-14500,448,298,-91,1,0
41.48227,7848,1492,-14556,448,-334,8,1,0
41.49889,7932,1396,-14384,432,-1195,38,1,0
41.5321,7752,1504,-14304,464,-929,2,1,0
41.56535,7796,1540,-14504,448,-90,-82,1,0
41.59858,7736,1556,-14592,464,172,127,1,0
41.59858,7828,1364,-14300,448,-40,125,1,0
41.64843,7828,1540,-14472,448,-716,-107,1,0
41.71489,7824,1532,-14292,448,-663,-312,1,0
41.71489,7796,1632,-14496,480,155,103,1,0
41.74812,7804,1604,-14500,464,426,249,1,0
41.78135,7904,1364,-14664,448,-134,228,1,0
41.83118,7828,1508,-14560,464,-929,-410,1,0
41.83118,7580,1564,-14224,448,-1475,-385,1,0
41.84781,7796,1628,-14076,464,-553,-538,1,0
41.89765,7840,1692,-14868,464,164,-236,1,0
41.94749,7808,1660,-14744,448,-196,623,1,0
41.98072,7684,1484,-14180,448,-327,317,1,0
42.01395,7644,1460,-14108,464,-458,-308,1,0
42.04709,7740,1596,-14660,480,-295,-232,1,0
42.06379,7932,1736,-14672,480,-195,627,1,0
42.09703,7784,1592,-14132,448,-314,330,1,0
42.13025,7608,1316,-13956,432,-237,-570,1,0
42.14687,7780,1464,-14700,464,-427,-864,1,0
42.16349,7660,1740,-14828,448,-220,51,1,0
42.22993,7660,1680,-14516,464,85,292,1,0
42.22993,7752,1704,-14240,464,326,75,1,0
42.27979,7772,1500,-14460,448,-85,-398,1,0
42.31302,7668,1392,-14424,464,-474,-425,1,0
42.34625,7700,1592,-14448,480,-373,-293,1,0
42.36287,7716,1640,-14832,448,111,-39,1,0
42.3961,7704,1496,-14456,464,-52,266,1,0
42.42933,7572,1456,-14372,432,198,136,1,0
42.46256,7656,1340,-14420,464,597,-515,1,0
42.49579,7796,1284,-14944,432,-572,-440,1,0
42.52902,7748,1448,-14640,448,-929,141,1,0
42.57886,7532,1576,-14404,464,-214,-107,1,0
42.57886,7664,1304,-14280,464,244,42,1,0
42.6121,7704,1436,-14628,464,744,-100,1,0
42.64532,7724,1228,-14788,432,-388,-113,1,0
42.67856,7500,1496,-14692,464,-1125,-307,1,0
42.69517,7556,1620,-14648,432,-466,-35,1,0
42.7284,7628,1484,-14340,464,594,124,1,0
42.76163,7640,1352,-14676,448,-172,-414,1,0
42.81148,7736,1372,-14868,448,-737,17,1,0
42.82809,7596,1392,-14560,464,-990,194,1,0
42.87794,7452,1344,-14120,464,-627,-32,1,0
42.87794,7588,1292,-14148,432,264,-224,1,0
42.91117,7576,1460,-14852,448,193,-185,1,0
42.9444,7640,1412,-14816,464,-314,-26,1,0
42.99424,7796,1468,-14776,448,-1026,457,1,0
43.02748,7472,1608,-13988,480,-81,421,1,0
43.06071,7432,1556,-14236,448,1047,143,1,0
43.09393,7768,1112,-14648,464,-60,-528,0,0
43.11055,7548,1300,-14712,448,-1328,-373,0,0
43.12717,7656,1516,-14696,448,-709,-88,0,0
43.1604,7628,1580,-14300,432,586,14,0,0
43.19363,7700,1344,-14604,432,696,-32,0,0
43.19363,7760,1172,-14648,480,-135,-86,0,0
43.24347,7672,1364,-14676,464,-586,-346,0,0
43.2767,7500,1336,-14484,432,-410,-234,0,0
43.30993,7584,1496,-14512,464,-277,99,0,0
43.34317,7488,1364,-14800,448,102,270,0,0
43.39301,7564,1148,-14548,464,48,-111,0,0
43.39301,7720,1260,-14644,496,-1072,-535,0,0
43.42624,7652,1448,-14648,448,-1093,-144,0,0
43.49268,7516,1544,-14620,480,472,329,0,0
43.52593,7468,1420,-14556,448,279,61,0,0
43.54255,7612,1340,-14472,464,-612,-224,0,0
43.57578,7556,1412,-14704,480,-485,-268,0,0
43.609,7616,1340,-14668,464,-60,182,0,0
43.609,7520,1308,-14572,480,69,736,0,0
43.64224,7596,1268,-14376,464,-267,-303,0,0
43.69209,7512,1308,-14592,480,-821,-381,0,0
43.72532,7568,1464,-14604,464,-569,-422,0,0
43.72532,7556,1312,-14716,448,-44,59,0,0
43.75854,7612,1368,-14712,464,120,169,0,0
43.79177,7564,1380,-14472,464,-171,90,0,0
43.84162,7564,1392,-14588,464,67,-79,0,0
43.87484,7584,1232,-14852,480,-370,86,0,0
43.90808,7684,1232,-14748,448,-1105,-124,0,0
43.90808,7708,1344,-14592,464,-586,274,0,0
43.94131,7680,1600,-14404,480,476,670,0,0
43.99115,7568,1300,-14624,464,48,-229,0,0
44.02438,7556,1308,-14852,464,-808,-60,0,0
44.02438,7540,1264,-14576,432,-579,213,0,0
44.09084,7648,1408,-14476,480,145,113,0,0
44.14069,7700,1432,-14444,464,-118,-197,0,0
44.14069,7608,1324,-14380,480,-599,-152,0,0
44.17391,7544,1404,-14424,464,137,26,0,0
44.19051,7504,1280,-14664,480,210,-47,0,0
44.24038,7544,1352,-14840,480,112,302,0,0
44.25699,7628,1252,-14636,464,-531,273,0,0
44.27361,7508,1384,-14376,464,-474,74,0,0
44.32346,7564,1352,-14640,464,-409,-185,0,0
44.35668,7676,1204,-14788,448,-667,-74,0,0
44.40653,7596,1136,-14540,448,-624,264,0,0
44.43976,7576,1436,-14428,464,69,548,0,0
44.43976,7640,1340,-14296,464,279,-97,0,0
44.47299,7664,1264,-14444,464,-233,-462,0,0
44.50623,7660,1196,-14776,464,-792,-587,0,0
44.53946,7656,1436,-14552,464,-153,-368,0,0
44.55606,7592,1396,-14684,448,313,203,0,0
44.5893,7568,1352,-14560,432,569,-61,0,0
44.65574,7600,1188,-14604,496,-704,-551,0,0
44.67237,7508,1184,-14420,480,-1092,-824,0,0
44.68899,7468,1360,-14504,464,-75,-809,0,0
44.73883,7324,1340,-14624,464,596,-92,0,0
44.77205,7424,1184,-14644,448,328,-247,0,0
44.77205,7368,1216,-14828,448,-687,-775,0,0
44.82191,7368,1284,-14904,464,-981,-809,0,0
44.83852,7332,1332,-14820,464,-354,32,0,0
44.88836,7232,1292,-14380,496,285,197,0,0
44.88836,7296,1084,-14288,480,652,-212,0,0
44.95481,7240,1048,-14728,464,946,-792,0,0
44.97144,7404,1096,-15020,448,125,-600,0,0
45.00467,7244,1080,-15020,448,-671,-242,0,0
45.03789,7100,1124,-14644,448,-648,66,0,0
45.07113,7252,1180,-14580,464,166,-642,0,0
45.10436,7280,1180,-14648,464,154,-551,0,0
45.12097,7128,1108,-14852,480,-47,-350,0,0
45.13692,7216,1076,-14836,480,-194,-406,0,0
45.18743,7128,1092,-14816,464,-250,-506,0,0
45.22065,7136,1184,-14820,416,-214,-580,0,0
45.2539,6976,1000,-14928,496,159,-579,0,0
45.28712,6960,872,-15060,448,38,-45,0,0
45.30374,6996,864,-15072,496,-294,-336,0,0
45.33696,7052,1048,-15000,480,-524,-461,0,0
45.37019,7104,996,-14940,480,-748,-670,0,0
45.40342,7000,972,-14780,480,-309,-444,0,0
45.45327,6772,996,-14908,448,-167,-145,0,0
45.48649,6856,960,-14928,496,124,-336,0,0
45.51972,6768,948,-15124,480,-29,-565,0,0
45.51972,6840,960,-14920,464,-389,94,0,0
45.60279,6892,1044,-14916,464,-32,-158,0,0
45.60279,6940,984,-14968,448,-323,-473,0,0
45.63603,6852,956,-14932,448,-452,-641,0,0
45.66926,6760,980,-14888,464,-96,-399,0,0
45.66926,6760,924,-15124,464,163,-274,0,0
45.75234,6724,956,-15060,448,-32,-190,0,0
45.75234,6740,928,-14976,480,-376,-504,0,0
45.78557,6632,924,-15064,480,-188,-458,0,0
45.8188,6872,984,-15388,448,-378,-58,0,0
45.85203,6740,804,-14848,480,-949,98,0,0
45.90188,6632,976,-14344,432,-207,-611,0,0
45.90188,6484,956,-15024,496,421,-835,0,0
45.9351,6444,856,-15260,480,194,-532,0,0
45.96835,6644,812,-15184,464,-266,-382,0,0
45.96835,6596,908,-14936,496,-249,73,0,0
46.05142,6620,932,-14972,464,386,-369,0,0
46.05142,6512,804,-14964,464,153,-364,0,0
46.08465,6560,764,-15280,448,-366,-992,0,0
46.16772,6420,864,-15168,480,-393,145,0,0
46.16772,6428,860,-14964,464,154,-56,0,0
46.20096,6512,864,-15208,464,-157,-302,0,0
46.23419,6488,832,-15304,464,-338,-250,0,0
46.23419,6340,800,-14988,480,-301,-292,0,0
46.26742,6480,712,-15032,464,-79,-455,0,0
46.30066,6336,852,-14988,448,-183,73,0,0
46.3505,6396,836,-15168,432,-282,-555,0,0
46.38373,6260,764,-15160,448,-62,-181,0,0
46.38373,6276,744,-15244,464,-251,-492,0,0
46.41696,6348,692,-15068,448,-371,97,0,0
46.45019,6268,916,-15264,464,-334,-217,0,0
46.50003,6332,800,-15436,464,-692,-465,0,0
46.50003,6396,920,-15188,464,-258,-65,0,0
46.56649,6280,760,-15236,480,-445,-331,0,0
46.56649,6180,832,-15288,464,-134,-568,0,0
46.61634,6160,768,-15168,464,-111,-165,0,0
46.64956,6208,824,-15272,496,-125,-324,0,0
46.68279,6252,732,-15352,464,-368,-753,0,0
46.71603,5996,736,-15424,464,144,-189,0,0
46.73264,6064,832,-15532,448,210,257,0,0
46.74926,6140,724,-15256,480,-773,701,0,0
46.7991,6228,828,-14940,464,-681,-636,0,0
46.84895,6004,736,-15184,448,-52,-998,0,0
46.86556,6100,692,-15528,464,-187,-506,0,0
46.89879,5972,696,-15592,464,133,-455,0,0
46.91541,5988,796,-15228,432,191,-162,0,0
46.94864,6032,800,-15408,464,127,-319,0,0
46.98186,6008,732,-15420,480,-260,-170,0,0
47.01509,5832,588,-15440,448,-542,-232,0,0
47.01509,5924,712,-15528,496,-390,-446,0,0
47.06493,5908,644,-15392,448,-276,-266,0,0
47.13139,5952,668,-15384,464,-241,-107,0,0
47.13139,5860,712,-15464,480,-527,-448,0,0
47.18124,5944,680,-15508,464,-732,-91,0,0
47.21447,5872,740,-15300,448,-427,-292,0,0
47.2477,5888,776,-15188,480,9,-293,0,0
47.2477,5912,620,-15376,448,119,-285,0,0
47.28089,5888,628,-15348,432,23,-76,0,0
47.31416,5924,624,-15444,464,54,-464,0,0
47.36399,5844,692,-15544,496,-423,-222,0,0
47.38061,5804,704,-15296,464,-365,-42,0,0
47.43046,5748,800,-15328,464,-191,-113,0,0
47.44707,5756,716,-15216,464,205,-48,0,0
47.46369,5768,696,-15456,448,240,78,0,0
47.51353,5880,588,-15496,464,-65,129,0,0
47.54676,5900,528,-15504,464,-320,166,0,0
47.54676,5852,560,-15496,496,-240,-166,0,0
47.61322,5736,540,-15324,448,-146,-249,0,0
47.64645,5788,616,-15508,496,204,-477,0,0
47.66306,5776,520,-15532,464,-135,317,0,0
47.6963,6180,696,-15240,480,-284,939,0,0
47.72952,5836,472,-15064,464,-244,-590,0,0
47.77937,5656,480,-15548,464,-132,-530,0,0
47.77937,5788,548,-15684,448,142,-324,0,0
47.8126,5776,468,-15680,480,-323,-126,0,0
47.84583,5864,556,-15460,480,-429,-226,0,0
47.87906,5836,556,-15344,480,-32,-316,0,0
47.91229,5880,380,-15440,448,2,-250,0,0
47.96214,5676,476,-15320,464,-181,-4,0,0
47.96214,5648,380,-15620,496,10,34,0,0
47.99537,5720,392,-15512,448,-112,-272,0,0
48.0286,5700,512,-15468,448,-392,-126,0,0
48.07844,5632,400,-15308,512,-304,58,0,0
48.07844,5640,508,-15512,480,-243,-5,0,0
48.11167,5628,464,-15400,464,-256,-180,0,0
48.17812,5712,508,-15568,464,161,-50,0,0
48.17812,5616,472,-15624,464,-234,-154,0,0
48.22798,5668,428,-15512,448,-229,-39,0,0
48.27782,5608,396,-15404,496,-105,-108,0,0
48.31104,5696,420,-15428,448,-269,-227,0,0
48.31104,5632,468,-15364,496,-416,-43,0,0
48.36089,5668,380,-15432,480,-21,-59,0,0
48.39411,5692,380,-15496,480,181,-1,0,0
48.42735,5716,300,-15448,464,48,25,0,0
48.44397,5700,364,-15388,464,-113,180,0,0
48.4938,5616,296,-15396,464,165,83,0,0
48.51041,5660,424,-15396,464,-173,-149,0,0
48.54365,5616,432,-15452,496,-434,-302,0,0
48.57688,5780,384,-15584,496,-309,385,0,0
48.61011,5740,412,-15040,480,-337,-33,0,0
48.64334,5620,316,-15260,480,-73,-509,0,0
48.65995,5576,228,-15804,496,-19,-558,0,0
48.69318,5528,192,-15672,464,-337,-271,0,0
48.7098,5496,320,-15324,480,-335,26,0,0
48.75965,5704,272,-15312,496,32,-227,0,0
48.84272,5616,264,-15428,464,-153,-151,0,0
48.84272,5676,360,-15604,432,-80,-68,0,0
48.87595,5564,204,-15572,480,-124,-50,0,0
48.90918,5556,320,-15684,448,75,-145,0,0
48.90918,5600,396,-15452,464,-282,-216,0,0
48.94241,5628,360,-15448,464,-527,87,0,0
48.95902,5500,328,-15428,496,-267,-49,0,0
49.02548,5512,208,-15524,464,12,-237,0,0
49.02548,5476,304,-15776,464,-348,-203,0,0
49.07533,5548,228,-15644,464,-88,278,0,0
49.10855,5588,104,-15468,480,-128,-214,0,0
49.14178,5472,360,-15628,464,-125,-189,0,0
49.17501,5424,164,-15560,432,65,151,0,0
49.19162,5544,148,-15680,464,-169,-148,0,0
49.24148,5532,300,-15484,432,-324,-246,0,0
49.25809,5440,100,-15616,464,-5,-10,0,0
49.29132,5496,204,-15492,448,-148,150,0,0
49.32455,5496,124,-15344,480,-3,132,0,0
49.35778,5520,200,-15580,448,92,97,0,0
49.35778,5556,184,-15544,480,-496,-181,0,0
49.40763,5376,112,-15588,448,-781,-448,0,0
49.44086,5552,332,-15740,464,-197,326,0,0
49.47409,5648,104,-15228,464,-191,174,0,0
49.47409,5404,220,-15176,496,-503,-382,0,0
49.50732,5384,112,-15496,464,-61,-17,0,0
49.59038,5344,52,-15908,480,-55,-43,0,0
49.59038,5356,4,-15684,464,-430,-135,0,0
49.62363,5508,208,-15480,448,115,-37,0,0
49.65685,5560,156,-15564,464,-109,-39,0,0
49.7067,5404,196,-15512,496,-225,-35,0,0
49.7067,5324,-28,-15496,464,45,-96,0,0
49.73993,5372,16,-15616,448,-344,-88,0,0
49.77316,5404,216,-15676,496,-411,-10,0,0
49.80639,5384,232,-15600,464,5,-70,0,0
49.85624,5340,16,-15708,480,-188,-356,0,0
49.88947,5476,176,-15676,464,-402,-37,0,0
49.9227,5416,172,-15544,464,-161,42,0,0
49.93931,5536,96,-15560,464,-316,65,0,0
49.95593,5520,0,-15504,464,-586,-368,0,0
50.00578,5464,156,-15572,480,-155,223,0,0
50.00578,5424,72,-15536,480,-18,94,0,0
50.03901,5332,16,-15516,464,-76,-59,0,0
50.07223,5368,16,-15632,496,69,-108,0,0
50.12208,5500,-4,-15680,464,-110,-102,0,0
50.15532,5312,168,-15600,496,-317,216,0,0
50.18855,5340,60,-15432,464,-149,418,0,0
50.18855,5484,12,-15368,464,-78,-98,0,0
50.22178,5372,8,-15660,464,-290,-35,0,0
50.255,5492,104,-15632,480,-634,-259,0,0
50.28823,5440,200,-15668,464,-178,271,0,0
50.33808,5616,-56,-15432,464,-612,-90,0,0
50.37131,5496,4,-15296,496,-328,-155,0,0
50.40454,5508,52,-15556,448,27,-103,0,0
50.42115,5236,-48,-15744,480,-135,67,0,0
50.45439,5376,-108,-15752,496,-449,-63,1,0
50.48761,5356,4,-15596,480,-393,88,1,0
50.52085,5536,44,-15408,480,115,246,1,0
50.53746,5544,-104,-15444,480,-302,277,1,0
50.57069,5416,-56,-15452,496,-281,-187,1,0
50.63715,5464,-96,-15648,464,-37,171,1,0
50.63715,5512,-96,-15616,480,-228,-10,1,0
50.687,5528,-116,-15528,464,-365,83,1,0
50.72022,5564,32,-15388,432,-343,176,1,0
50.75345,5472,-88,-15632,464,-463,146,1,0
50.75345,5432,-88,-15516,480,-293,115,1,0
50.8033,5448,-60,-15536,496,-371,147,1,0
50.81991,5540,-12,-15532,480,-160,15,1,0
50.85315,5492,-100,-15556,496,-286,-102,1,0
50.90298,5512,28,-15540,480,-199,36,1,0
50.93622,5316,4,-15508,464,-372,57,1,0
50.96946,5496,-108,-15400,480,-292,20,1,0
51.01929,5552,56,-15516,464,-113,135,1,0
51.01929,5480,16,-15528,480,-113,132,1,0
51.08575,5492,16,-15572,480,-348,37,1,0
51.08575,5592,-100,-15612,496,-356,26,1,0
51.11899,5616,-20,-15620,496,-264,-10,1,0
51.11899,5416,156,-15616,464,-372,-105,1,0
51.16883,5516,-64,-15696,464,-567,202,1,0
51.20205,5564,64,-15096,480,-523,-55,1,0
51.23529,5532,0,-15256,496,-297,-439,1,0
51.28513,5544,16,-15704,496,-13,-343,1,0
51.30175,5528,16,-15824,480,-623,-226,1,0
51.31837,5408,-40,-15548,480,-285,-36,1,0
51.3516,5552,0,-15392,464,-175,-90,1,0
51.38483,5496,40,-15424,496,13,91,1,0
51.41806,5528,-48,-15440,432,-392,-87,1,0
51.50114,5376,12,-15676,496,-132,-122,1,0
51.50114,5420,-132,-15752,448,-103,68,1,0
51.53437,5440,88,-15568,464,-287,5,1,0
51.55098,5344,-16,-15436,480,-666,38,1,0
51.58421,5368,156,-15548,480,-213,-101,1,0
51.61743,5488,-24,-15548,464,-124,54,1,0
51.61743,5564,-112,-15792,496,-509,178,1,0
51.65067,5480,0,-15404,464,-575,110,1,0
51.6839,5492,68,-15528,496,-158,238,1,0
51.71712,5472,108,-15556,464,-426,232,1,0
51.76696,5548,60,-15484,464,-68,474,1,0
51.80017,5616,-56,-15696,496,-347,451,1,0
51.80017,5588,100,-15404,464,-356,163,1,0
51.83342,5636,40,-15580,464,-286,453,1,0
51.88327,5788,24,-15548,480,-241,754,1,0
51.89988,5708,44,-15592,464,-298,673,1,0
51.9165,5668,92,-15460,480,-479,412,1,0
51.94973,5776,112,-15428,496,-502,299,1,0
51.98296,5712,124,-15492,448,-415,276,1,0
52.03279,5820,132,-15572,464,-663,524,1,0
52.04941,5984,64,-15244,448,-621,577,1,0
52.09926,5952,40,-15164,448,-666,531,1,0
52.09926,5772,204,-15380,448,-491,137,1,0
52.14911,5936,176,-15720,480,-394,258,1,0
52.18233,5976,108,-15452,464,-433,511,1,0
52.21556,5944,136,-15264,480,-453,531,1,0
52.21556,6040,244,-15248,480,-496,427,1,0
52.29862,6048,228,-15288,480,-257,377,1,0
52.31524,6076,200,-15300,464,-613,418,1,0
52.33185,5928,148,-15360,496,-794,575,1,0
52.36508,6156,304,-15240,480,-700,630,1,0
52.39831,6232,280,-15300,464,-868,387,1,0
52.44816,6096,420,-15248,464,-425,558,1,0
52.44816,6304,328,-15112,480,-618,479,1,0
52.48139,6200,416,-15224,496,-892,322,1,0
52.51462,6256,448,-15224,480,-742,676,1,0
52.54785,6360,444,-15296,448,-492,491,1,0
52.58109,6324,472,-15196,496,-378,375,1,0
52.63094,6256,400,-15412,464,-243,443,1,0
52.63094,6304,520,-15376,464,-469,495,1,0
52.66416,6444,560,-15240,480,-493,472,1,0
52.69739,6392,428,-15136,480,-639,392,1,0
52.73062,6348,500,-15088,496,-633,574,1,0
52.73062,6460,624,-14952,496,-204,833,1,0
52.81368,6516,624,-15128,496,-375,399,1,0
52.81368,6608,592,-15212,496,-637,469,1,0
52.86353,6820,584,-15376,496,-572,1130,1,0
52.88015,6732,608,-14696,496,-377,542,1,0
52.92999,6592,620,-14900,496,-525,367,1,0
52.92999,6492,576,-15072,480,-279,104,1,0
52.96323,6592,668,-15004,496,-568,454,1,0
52.99646,6852,676,-14852,512,-458,730,1,0
53.02969,6836,672,-14940,448,-425,538,1,0
53.07952,6912,736,-14880,448,-454,325,1,0
53.11276,6712,760,-14848,512,-551,309,1,0
53.11276,6956,796,-14976,480,-548,472,1,0
53.14599,7052,648,-14988,480,-666,398,1,0
53.19584,7076,800,-14728,464,-683,196,1,0
53.22906,6836,788,-15088,480,-708,498,1,0
53.24568,7024,852,-14928,496,-499,605,1,0
53.26229,6952,756,-14812,464,-411,463,1,0
53.29552,7076,816,-14912,480,-433,283,1,0
53.3786,7148,756,-14676,480,-452,284,1,0
53.3786,7060,868,-14828,432,-380,426,1,0
53.39522,7184,780,-14956,512,-412,413,1,0
53.44506,7076,816,-14860,496,-486,219,1,0
53.46167,7116,752,-14884,464,-396,320,1,0
53.4949,7160,672,-14652,496,-227,332,1,0
53.52814,7152,972,-14640,512,-339,572,1,0
53.56136,7276,872,-14848,464,-479,368,1,0
53.56136,7452,1048,-14896,480,-582,631,1,0
53.62782,7356,1024,-14584,480,-599,284,1,0
53.64444,7000,884,-14504,480,-647,-87,1,0
53.67767,7236,920,-14836,512,-206,-226,1,0
53.74413,7304,876,-15088,480,89,-83,1,0
53.76075,7300,868,-14804,496,-446,596,1,0
53.79398,7404,952,-14460,480,-568,333,1,0
53.79398,7388,912,-14584,480,-357,193,1,0
53.81059,7484,876,-14936,496,-350,-36,1,0
53.86044,7308,1084,-14852,464,-439,290,1,0
53.91028,7176,1076,-14632,496,-656,610,1,0
53.94351,7444,1036,-14432,464,-683,171,1,0
53.97674,7524,1116,-14600,464,-589,52,1,0
53.97674,7336,1072,-14780,464,-513,253,1,0
54.00997,7536,1120,-14676,480,-551,324,1,0
54.0432,7384,1168,-14452,496,-264,147,1,0
54.09303,7560,1168,-14632,496,-517,-75,1,0
54.09303,7604,1096,-14652,496,-971,162,1,0
54.15951,7452,1232,-14552,512,-7,73,1,0
54.15951,7416,1120,-14552,464,-39,110,1,0
54.20934,7440,1096,-14328,464,-171,207,1,0
54.24258,7468,1064,-14540,464,7,-41,1,0
54.27581,7548,1096,-14996,480,-283,145,1,0
54.27581,7672,1196,-14884,480,-449,608,1,0
54.30904,7568,1176,-14192,480,-65,164,1,0
54.35889,7568,972,-14504,496,11,-296,1,0
54.42534,7464,968,-14740,496,-561,-177,1,0
54.42534,7616,1076,-14864,480,-604,304,1,0
54.45857,7596,1160,-14564,480,-438,470,1,0
54.47519,7464,1196,-14396,512,-252,238,1,0
54.50842,7608,1100,-14432,464,5,-232,1,0
54.54165,7560,996,-14652,464,-74,258,1,0
54.57488,7484,1036,-14844,496,-627,536,1,0
54.57488,7672,1120,-14616,480,-609,429,1,0
54.60811,7740,1040,-14552,464,-635,74,1,0
54.65795,7740,1184,-14512,480,-740,-83,1,0
54.69118,7628,1232,-14516,464,-517,361,1,0
54.72441,7592,1272,-14448,496,469,406,1,0
54.74103,7788,1156,-14632,464,153,289,1,0
54.75764,7728,1004,-14488,496,-404,220,1,0
54.80748,7764,1100,-14352,480,-928,35,1,0
54.84071,7664,1148,-14508,496,-339,207,1,0
54.87394,7792,1120,-14520,480,-119,-189,1,0
54.90717,7612,1160,-14328,464,-521,136,1,0
54.92378,7600,1172,-14384,496,-544,-125,1,0
54.99024,7768,1236,-14544,464,-332,109,1,0
54.99024,7796,1216,-14728,480,-573,493,1,0
55.04009,7896,1232,-14256,480,-717,131,1,0
55.05671,7588,1184,-14048,480,80,-594,1,0
55.10655,7696,1108,-14548,448,337,-689,1,0
55.10655,7608,1188,-14804,480,-118,-3,1,0
55.13979,7560,1320,-14360,496,-398,117,1,0
55.17302,7732,1320,-14092,496,-337,-221,1,0
55.25608,7812,1160,-14432,512,172,-81,1,0
55.25608,7828,1180,-14852,480,53,197,1,0
55.27271,7820,1072,-14880,480,-581,439,1,0
55.27271,7760,1096,-14556,480,-988,581,1,0
55.32256,7672,1248,-14148,496,-576,271,1,0
55.35578,7672,1352,-14016,480,340,13,1,0
55.40562,7756,1116,-14424,464,249,-491,1,0
55.40562,7896,1232,-14604,512,-87,-358,1,0
55.43873,7832,1188,-14612,480,-560,-90,1,0
55.50522,7660,1248,-14548,512,-404,148,1,0
55.52193,7640,1156,-14404,496,-159,-19,1,0
55.55517,7700,1172,-14212,464,-108,-364,1,0
55.58839,7744,1220,-14776,512,-314,-241,1,0
55.62163,7728,1228,-14924,480,-401,224,1,0
55.62163,7660,1228,-14364,496,-149,214,1,0
55.67147,7752,1084,-14448,496,-112,207,1,0
55.73794,7760,1160,-14664,480,-426,-29,1,0
55.73794,7792,1140,-14616,480,-475,69,1,0
55.77117,7816,1152,-14376,512,-247,142,1,0
55.78778,7848,1224,-14668,496,-44,385,1,0
55.8044,7820,1128,-14216,480,-387,44,1,0
55.85425,7652,1056,-14492,496,-182,-378,1,0
55.88748,7708,1128,-14612,464,-3,-155,1,0
55.92071,7708,1044,-14416,480,-250,1,1,0
55.92071,7732,1068,-14296,496,-417,-73,1,0
55.97055,7736,1172,-14432,480,-400,-46,1,0
56.00378,7788,1128,-14648,512,62,61,1,0
56.03701,7656,1100,-14592,496,108,-121,1,0
56.12009,7844,1068,-14552,464,-150,-351,1,0
56.12009,7772,1180,-14740,496,-471,-108,1,0
56.13671,7720,1156,-14432,512,-563,264,1,0
56.13671,7668,1032,-14344,496,-8,-131,1,0
56.21978,7752,1128,-14544,480,82,-397,1,0
56.2364,7740,1128,-14612,480,-281,-258,1,0
56.26962,7764,1136,-14552,448,-529,-166,1,0
56.26962,7752,1136,-14632,480,-84,107,1,0
56.30285,7744,1040,-14532,496,-125,-93,1,0
56.3693,7668,1108,-14396,496,-471,-116,1,0
56.41915,7692,1196,-14440,496,-336,-209,1,0
56.45238,7560,1132,-14600,528,-149,-235,1,0
56.45238,7560,1088,-14692,512,-200,123,1,0
56.53545,7568,1008,-14548,464,-499,-75,1,0
56.53545,7768,1192,-14360,496,-318,-219,1,0
56.55208,7752,1152,-14640,464,-19,-198,1,0
56.55208,7604,1088,-14696,496,-219,129,1,0
56.60192,7584,1072,-14564,448,-297,183,1,0
56.66837,7624,1060,-14432,464,-309,29,1,0
56.68499,7712,1140,-14652,464,-433,39,1,0
56.70161,7872,1152,-14700,480,-385,450,1,0
56.70161,7668,1324,-14484,512,-570,455,1,0
56.75146,7408,1180,-14140,496,-196,100,1,0
56.81791,7532,1016,-14444,496,17,-325,1,0
56.83452,7768,1096,-14688,496,99,-37,1,0
56.86775,7632,1116,-14624,464,-461,60,1,0
56.86775,7748,1200,-14676,496,-1022,59,1,0
56.93419,7792,1260,-14216,528,-168,-102,1,0
56.96743,7652,1056,-14428,496,377,-218,1,0
56.98404,7664,988,-14548,448,-163,-195,1,0
57.01728,7724,1104,-14748,528,-405,1,1,0
57.01728,7712,1220,-14604,464,-146,259,1,0
57.05051,7640,1092,-14468,512,-183,169,1,0
57.08374,7628,1008,-14336,480,-203,47,1,0
57.13358,7676,968,-14456,528,-75,-277,1,0
57.16681,7728,1020,-14640,496,-393,-127,1,0
57.20005,7752,1168,-14592,480,-644,-130,1,0
57.20005,7720,1272,-14560,480,-568,-56,1,0
57.23328,7600,1076,-14404,464,193,-57,1,0
57.26651,7572,1024,-14532,496,65,-68,1,0
57.31636,7684,1016,-14612,480,-551,-387,1,0
57.39942,7736,1080,-14672,480,-477,-334,1,0
57.39942,7664,1180,-14840,496,123,98,1,0
57.41605,7576,940,-14720,480,-434,244,1,0
57.46589,7696,1076,-14200,464,-926,-200,1,0
57.49912,7616,1088,-14348,496,-232,-234,1,0
57.49912,7632,1056,-14668,480,205,-31,1,0
57.54896,7572,1052,-14548,464,-177,32,1,0
57.54896,7580,1208,-14576,528,-785,-78,1,0
57.56556,7892,1108,-14760,464,-663,312,1,0
57.61543,7696,1304,-14560,496,-622,251,1,0
57.64865,7484,1120,-14316,496,-194,-393,1,0
57.64865,7616,1112,-14588,496,145,-235,1,0
57.76497,7672,956,-14732,480,-104,268,1,0
57.76497,7672,1272,-14628,464,-297,118,1,0
57.7982,7680,1200,-14364,496,-398,-42,1,0
57.7982,7676,1152,-14384,496,-40,-310,1,0
57.84789,7724,1100,-14592,480,-230,-257,1,0
57.88127,7456,1068,-14592,496,-124,-126,0,0
57.88127,7668,1104,-14676,528,-122,15,0,0
57.9145,7592,1072,-14400,496,-518,-98,0,0
57.94773,7664,1160,-14552,480,-582,-428,0,0
57.98096,7620,1252,-14648,480,178,-240,0,0
58.01419,7572,968,-14508,496,408,160,0,0
58.06404,7764,748,-14828,496,-625,-1,0,0
58.06404,7756,960,-14556,480,-624,-62,0,0
58.09726,7632,1096,-14612,496,-379,-346,0,0
58.13049,7620,940,-14696,496,-465,-29,0,0
58.18034,7488,1120,-14628,512,-127,108,0,0
58.18034,7716,1128,-14728,512,48,18,0,0
58.2468,7592,1036,-14540,496,-417,-32,0,0
58.28004,7528,1012,-14460,496,-847,-185,0,0
58.28004,7624,1232,-14532,480,-441,-236,0,0
58.32988,7624,1120,-14572,464,-231,-78,0,0
58.36311,7668,1000,-14572,496,-285,-184,0,0
58.39634,7472,1096,-14644,496,177,47,0,0
58.42956,7560,1032,-14560,480,253,-184,0,0
58.44619,7656,1060,-14612,480,-355,-171,0,0
58.4628,7780,1100,-15068,496,-1162,149,0,0
58.52927,7372,1192,-14280,512,-926,197,0,0
58.54588,7612,1032,-14560,480,-277,106,0,0
58.59573,7352,1064,-14472,480,-131,-3,0,0
58.59573,7596,1148,-14732,480,-568,-376,0,0
58.62896,7424,1220,-14508,496,-50,124,0,0
58.66219,7724,1112,-14772,512,291,-127,0,0
58.69542,7552,1128,-14660,496,-485,-284,0,0
58.69542,7676,1016,-14592,528,-255,-354,0,0
58.74526,7488,1144,-14632,480,-201,-328,0,0
58.81172,7456,1244,-14820,480,-347,-46,0,0
58.81172,7536,1292,-14704,480,-207,64,0,0
58.84494,7564,996,-14620,480,-320,84,0,0
58.89479,7500,1136,-14588,464,-294,-242,0,0
58.9114,7472,1064,-14756,480,-99,-336,0,0
58.92802,7556,988,-14668,480,-243,-247,0,0
58.96125,7608,924,-14800,512,-417,53,0,0
58.99448,7492,1172,-14628,464,-620,-6,0,0
59.07755,7464,1012,-14636,496,-33,81,0,0
59.07755,7444,1048,-14732,464,-71,-257,0,0
59.09416,7456,1156,-14784,480,-459,-416,0,0
59.1111,7504,1172,-14660,528,-499,-202,0,0
59.14433,7456,1108,-14588,496,-121,38,0,0
59.19423,7468,1144,-14744,480,32,-145,0,0
59.21086,7512,972,-14648,496,-277,-219,0,0
59.26075,7404,968,-14740,496,-476,-352,0,0
59.26075,7308,1036,-14700,512,-433,-144,0,0
59.34386,7304,1136,-14572,496,-248,-197,0,0
59.34386,7212,1156,-14588,512,-227,-332,0,0
59.37711,7296,1000,-14912,464,-187,-566,0,0
59.41036,7492,1144,-14828,512,-385,-157,0,0
59.44361,7344,1072,-14444,496,-552,-594,0,0
59.49347,7136,1060,-14376,480,-109,-1197,0,0
59.50999,7132,1072,-15012,496,525,-1130,0,0
59.50999,7300,964,-15104,512,496,-554,0,0
59.55999,7000,996,-14880,528,-107,-530,0,0
59.60986,7024,1172,-14788,496,-549,-685,0,0
59.6431,7104,1068,-14956,496,-446,-374,0,0
59.67635,6940,1088,-14716,496,315,-311,0,0
59.67635,6888,864,-14740,464,240,-601,0,0
59.70959,6988,848,-15016,512,141,-488,0,0
59.74284,6980,1004,-15084,496,-49,-423,0,0
59.79272,6828,920,-14992,496,-311,-59,0,0
59.79272,6876,860,-15084,480,-343,-533,0,0
59.85922,6748,904,-14816,496,5,-669,0,0
59.87584,6852,828,-15052,480,26,-638,0,0
59.89247,6868,832,-14952,496,-84,-159,0,0
59.94233,6704,876,-14976,512,-13,-350,0,0
59.97559,6740,812,-14956,480,-536,-189,0,0
60.00883,6744,876,-15084,480,-427,-440,0,0
60.00883,6728,880,-15064,496,-263,-241,0,0
60.0587,6676,996,-15188,464,-237,-241,0,0
60.09195,6608,944,-14904,496,-90,-393,0,0
60.12519,6680,896,-14996,496,-212,-440,0,0
60.15845,6580,816,-15284,480,-224,-570,0,0
60.19169,6556,828,-15032,496,-501,-223,0,0
60.20832,6624,852,-15088,480,-65,208,0,0
60.24157,6648,880,-15040,480,-169,-483,0,0
60.27482,6400,716,-15228,512,-101,-837,0,0
60.30806,6648,744,-15496,480,-417,-148,0,0
60.32469,6472,872,-14920,496,-460,40,0,0
60.35794,6400,852,-14680,480,-129,-658,0,0
60.42444,6384,740,-14920,480,202,-1074,0,0
60.42444,6452,636,-15376,512,408,-554,0,0
60.45769,6280,652,-15336,480,-78,-25,0,0
60.50756,6376,804,-15084,464,-250,-224,0,0
60.54081,6412,636,-15048,512,111,-514,0,0
60.54081,6328,664,-15076,480,-42,-64,0,0
60.59068,6392,532,-15260,496,-198,-316,0,0
60.60731,6272,620,-15248,464,-537,-457,0,0
60.65718,6096,636,-15280,496,-591,-381,0,0
60.69043,6112,716,-15176,496,-175,-352,0,0
60.72368,6480,672,-15288,496,-110,-244,0,0
60.75694,6472,568,-15376,496,-477,-90,0,0
60.77356,6196,540,-15188,512,-608,-46,0,0
60.8068,6244,568,-15224,512,-92,-636,0,0
60.84005,6144,648,-15380,512,-293,-536,0,0
60.87329,6128,620,-15300,512,-31,-409,0,0
60.87329,6140,536,-15404,496,244,-56,0,0
60.95643,6164,520,-15324,512,-305,-147,0,0
60.95643,6116,604,-15240,512,-743,-659,0,0
60.98967,6056,624,-15236,512,-210,-152,0,0
61.02293,6004,712,-15196,512,124,100,0,0
61.05571,6128,592,-15364,496,-127,-176,0,0
61.10559,6092,644,-15432,496,-102,-220,0,0
61.10559,6016,580,-15368,480,202,-184,0,0
61.1388,5952,588,-15360,496,201,-65,0,0
61.17204,5952,556,-15260,480,-310,-435,0,0
61.22189,6084,536,-15556,496,-606,-325,0,0
61.255,6116,584,-15128,480,-436,-26,0,0
61.28836,5932,616,-14708,480,-195,-374,0,0
61.28836,5784,636,-15352,496,146,-443,0,0
61.33821,5756,336,-15768,496,-514,-511,0,0
61.37145,5820,640,-15596,464,-190,-342,0,0
61.40469,5952,408,-15312,512,33,-122,0,0
61.40469,5908,508,-15328,512,92,10,0,0
61.45454,5784,432,-15344,496,-101,211,0,0
61.50439,5816,368,-15480,496,-343,-567,0,0
61.52101,5840,440,-15420,496,20,-374,0,0
61.55424,5800,464,-15720,496,-413,-178,0,0
61.58748,5788,460,-15388,480,-474,-61,0,0
61.62071,5792,636,-15216,528,-20,-5,0,0
61.63733,5772,388,-15436,480,-454,-320,0,0
61.67057,5788,396,-15688,496,-318,-245,0,0
61.70381,5716,524,-15544,480,147,69,0,0
61.73705,5868,376,-15340,496,-208,-91,0,0
61.77028,5664,480,-15532,496,-397,-307,0,0
61.82013,5724,500,-15516,512,-132,192,0,0
61.82013,5668,468,-15372,528,51,-396,0,0
61.83675,5572,428,-15556,496,72,-257,0,0
61.8866,5808,396,-15392,480,398,165,0,0
61.91985,5720,400,-15588,496,-226,125,0,0
61.91985,5800,288,-15384,464,-449,-428,0,0
61.96969,5632,384,-15528,496,69,169,0,0
62.00293,5748,356,-15532,480,186,-115,0,0
62.03611,5756,248,-15420,496,-323,-120,0,0
62.06941,5684,316,-15808,512,-187,-186,0,0
62.11925,5760,404,-15460,528,-385,135,0,0
62.15249,5716,376,-14976,448,-532,-371,0,0
62.15249,5540,372,-15436,512,24,-513,0,0
62.18573,5640,332,-15836,496,369,-463,0,0
62.21896,5464,156,-15780,496,-274,-234,0,0
62.26881,5600,224,-15580,512,-591,-232,0,0
62.26881,5436,328,-15472,496,-92,-206,0,0
62.33527,5488,268,-15488,512,-314,-94,0,0
62.33527,5564,116,-15528,496,-56,-186,0,0
62.41788,5536,116,-15620,528,-68,-72,0,0
62.41788,5480,248,-15732,576,-280,-254,0,0
62.45111,5448,228,-15424,480,-120,33,0,0
62.48436,5540,288,-15504,496,-176,70,0,0
62.50095,5460,160,-15476,512,-293,-323,0,0
62.53417,5564,44,-15500,528,-290,-172,0,0
62.56741,5444,92,-15384,480,76,-435,0,0
62.60064,5496,56,-15448,480,-397,-132,0,0
62.63387,5448,196,-15496,480,-552,-20,0,0
62.6671,5324,204,-15376,496,4,-51,0,0
62.68372,5396,120,-15596,512,233,-34,0,0
62.71695,5588,204,-15524,480,-285,-71,0,0
62.75018,5412,128,-15528,512,-175,273,0,0
62.78341,5468,108,-15400,528,238,245,0,0
62.80002,5484,172,-15544,512,-104,-139,0,0
62.86649,5480,236,-15668,528,-207,-138,0,0
62.86649,5468,112,-15568,512,-158,-10,0,0
62.89972,5460,204,-15760,512,-445,-112,0,0
62.93294,5516,184,-15416,512,-482,203,0,0
62.98279,5432,84,-15092,480,-458,-1,0,0
62.98279,5388,216,-15236,464,38,-379,0,0
63.01602,5364,40,-15840,496,-61,-222,0,0
63.04926,5312,60,-15808,496,-398,-212,0,0
63.08249,5440,104,-15432,512,-66,-79,0,0
63.13233,5488,116,-15460,496,25,-25,0,0
63.16557,5464,12,-15468,496,-355,-71,0,0
63.19879,5324,112,-15624,480,-241,18,0,0
63.21541,5396,20,-15652,528,-60,-48,0,0
63.24864,5456,36,-15760,496,-193,30,0,0
63.28187,5400,116,-15672,496,-404,-23,0,0
63.3151,5396,180,-15360,496,-406,43,0,0
63.3151,5412,32,-15616,480,-260,62,0,0
63.34834,5368,60,-15548,496,-380,-91,0,0
63.43141,5416,140,-15512,512,-261,-84,0,0
63.43141,5392,44,-15500,496,-209,50,0,0
63.46465,5468,52,-15432,480,-217,13,0,0
63.49788,5340,8,-15548,512,-25,39,0,0
63.53111,5348,40,-15576,496,-131,-83,0,0
63.53111,5336,44,-15692,496,-6,37,0,0
63.58096,5348,128,-15572,480,-202,206,0,0
63.61419,5384,8,-15480,512,-176,244,0,0
63.64742,5472,100,-15672,496,-362,98,0,0
63.68065,5456,48,-15600,528,-181,2,0,0
63.71388,5436,40,-15552,528,-263,-94,0,0
63.71388,5300,36,-15820,496,-392,12,0,0
63.76373,5640,8,-15552,512,-628,105,0,0
63.79696,5484,120,-14964,496,-281,-216,0,0
63.83018,5408,40,-15396,480,-84,-528,0,0
63.83018,5360,-28,-15840,496,-467,-306,0,0
63.88004,5308,48,-15476,464,-21,248,0,0
63.91308,5444,-40,-15484,512,-556,-437,0,0
63.9465,5476,92,-15472,528,-142,-193,0,0
63.99634,5520,4,-15548,496,-346,73,0,0
64.01295,5316,-116,-15464,480,-176,117,0,0
64.02957,5360,44,-15852,512,-41,54,0,0
64.06281,5292,104,-15416,496,-183,116,0,0
64.09604,5340,132,-15500,512,-451,33,0,0
64.14589,5376,-4,-15440,512,-323,-86,0,0
64.14589,5344,64,-15640,512,-264,72,0,0
64.17912,5328,20,-15560,496,-326,-15,0,0
64.24557,5428,28,-15504,512,-402,-61,0,0
64.26219,5460,-4,-15616,496,-187,-43,0,0
64.27882,5384,-56,-15504,480,-348,24,0,0
64.32866,5376,132,-15592,528,-296,2,0,0
64.36188,5412,68,-15504,512,120,111,0,0
64.39511,5488,-56,-15596,496,-139,-8,0,0
64.39511,5396,48,-15444,512,-551,287,0,0
64.42834,5364,80,-15472,528,-97,277,0,0
64.47819,5440,32,-15576,512,-208,116,0,0
64.51142,5244,12,-15720,496,-88,153,0,0
64.54465,5396,120,-15588,512,-500,-87,0,0
64.56126,5316,36,-15396,560,-292,52,0,0
64.57788,5464,12,-15724,528,-487,55,0,0
64.62773,5492,20,-15272,512,-443,-186,0,0
64.66096,5360,-16,-15260,528,-186,-422,0,0
64.67757,5412,88,-15744,528,77,-102,0,0
64.7108,5380,-76,-15748,528,-476,-152,0,0
64.77725,5396,80,-15544,496,-430,-183,0,0
64.77725,5516,204,-15460,480,-96,-145,0,0
64.79388,5384,96,-15504,496,-167,-232,0,0
64.84373,5452,8,-15484,544,-147,138,0,0
64.89356,5244,-44,-15564,480,-125,94,0,0
64.89356,5396,16,-15616,528,-299,-55,0,0
64.92679,5412,168,-15404,496,-437,35,0,0
64.96002,5416,144,-15400,496,-372,207,0,0
64.99325,5432,64,-15632,528,-488,45,0,0
65.0431,5400,48,-15436,528,-456,68,0,0
65.07632,5368,32,-15640,496,-152,131,0,0
65.07632,5560,-24,-15732,480,-482,-296,0,0
65.10956,5412,96,-15460,512,-3,17,0,0
65.14278,5380,24,-15568,496,-169,172,0,0
65.19263,5272,-28,-15492,512,-177,-93,0,0
65.19263,5300,48,-15524,512,40,163,0,0
65.2591,5324,44,-15604,512,-87,11,0,0
65.2591,5452,108,-15532,512,66,250,0,0
65.34217,5520,32,-15620,480,-170,244,1,0
65.34217,5524,32,-15400,512,-220,241,1,0
65.3588,5424,-32,-15508,512,-204,128,1,0
65.3588,5304,108,-15708,512,-442,-86,1,0
65.42525,5372,44,-15600,512,-527,-84,1,0
65.45847,5420,-24,-15568,480,-687,105,1,0
65.47509,5488,36,-15200,512,-483,-92,1,0
65.57478,5444,52,-15484,512,11,-319,1,0
65.57478,5352,-56,-15884,496,-105,-208,1,0
65.5914,5324,-52,-15748,480,-604,-310,1,0
65.5914,5404,52,-15508,512,-233,-48,1,0
65.64124,5460,116,-15676,496,-159,-180,1,0
65.67448,5332,116,-15528,496,-159,6,1,0
65.6911,5468,-16,-15460,496,-388,107,1,0
65.70771,5228,-56,-15712,512,-266,-167,1,0
65.75755,5376,8,-15500,528,-259,168,1,0
65.82402,5372,120,-15540,528,-398,164,1,0
65.82402,5412,20,-15496,480,-223,-1,1,0
65.87386,5300,-32,-15600,512,-398,81,1,0
65.89048,5316,-64,-15540,496,-506,210,1,0
65.94032,5312,32,-15532,464,-112,23,1,0
65.94032,5520,4,-15684,528,-352,-265,1,0
65.99017,5456,68,-15640,496,-313,149,1,0
66.00679,5432,64,-15492,528,-264,-95,1,0
66.05663,5440,16,-15588,528,33,100,1,0
66.05663,5408,-144,-15672,512,-236,76,1,0
66.1231,5492,4,-15636,480,-377,195,1,0
66.15633,5428,80,-15560,496,-265,229,1,0
66.17294,5504,96,-15536,512,-80,161,1,0
66.20617,5536,-60,-15640,512,-146,-33,1,0
66.2394,5564,-24,-15684,480,-233,6,1,0
66.2394,5544,4,-15684,512,-423,-100,1,0
66.27263,5396,8,-15540,496,-672,-160,1,0
66.32248,5408,84,-15272,496,-569,19,1,0
66.33909,5460,-36,-15560,496,-98,-395,1,0
66.38893,5380,12,-15892,528,49,-270,1,0
66.42216,5380,-44,-15688,496,-495,-310,1,0
66.45539,5424,92,-15376,512,-347,5,1,0
66.47201,5496,96,-15460,480,-101,-191,1,0
66.50523,5504,40,-15640,560,-317,-23,1,0
66.53846,5316,64,-15448,544,-162,241,1,0
66.57169,5428,-44,-15720,496,-176,116,1,0
66.5883,5488,92,-15508,512,-300,198,1,0
66.65475,5504,116,-15568,528,-401,332,1,0
66.65475,5572,124,-15368,512,-490,326,1,0
66.68799,5492,40,-15320,512,-308,599,1,0
66.72121,5588,-60,-15544,512,-329,355,1,0
66.75446,5544,16,-15552,480,-264,299,1,0
66.77106,5604,108,-15456,528,-329,351,1,0
66.83752,5652,92,-15424,528,-395,344,1,0
66.83752,5504,32,-15492,480,-240,549,1,0
66.87075,5716,-12,-15516,496,-292,535,1,0
66.87075,5716,56,-15540,496,-520,447,1,0
66.95382,5720,120,-15540,512,-394,405,1,0
66.95382,5648,112,-15444,512,-466,759,1,0
66.98706,5844,156,-15444,528,-350,741,1,0
67.05352,5936,216,-15316,528,-199,855,1,0
67.07013,5828,132,-15268,528,-234,256,1,0
67.10336,5848,324,-15412,496,-617,242,1,0
67.10336,6068,100,-15648,512,-704,462,1,0
67.11998,6072,112,-15008,496,-580,682,1,0
67.16982,5984,280,-14904,528,-730,408,1,0
67.21967,5928,132,-15384,496,-316,346,1,0
67.23627,5976,220,-15484,496,-486,289,1,0
67.25291,6140,228,-15228,496,-585,394,1,0
67.28614,6244,448,-15168,512,-523,447,1,0
67.31937,6280,360,-15332,512,-417,651,1,0
67.3692,6196,296,-15224,480,-598,416,1,0
67.40244,6156,380,-15356,512,-694,186,1,0
67.40244,6184,304,-15348,544,-688,348,1,0
67.46889,6300,372,-15284,512,-736,400,1,0
67.46889,6300,484,-15256,528,-666,583,1,0
67.48551,6208,588,-15296,528,-305,758,1,0
67.55198,6292,452,-15348,544,-642,366,1,0
67.58521,6404,408,-15248,528,-567,521,1,0
67.61844,6344,464,-15064,496,-435,747,1,0
67.61844,6520,464,-15096,528,-626,488,1,0
67.66828,6536,416,-15164,528,-605,360,1,0
67.70152,6540,660,-15132,496,-194,284,1,0
67.70152,6444,600,-15216,544,-460,718,1,0
67.76797,6460,476,-15072,544,-449,503,1,0
67.78459,6472,536,-15108,512,-198,594,1,0
67.81783,6756,584,-15036,512,-704,439,1,0
67.85107,6584,696,-14892,528,-383,204,1,0
67.88429,6628,752,-15200,512,-702,398,1,0
67.88429,6856,584,-14928,496,-562,458,1,0
67.91753,6800,644,-15176,528,-391,618,1,0
67.96736,6740,724,-14712,544,-415,609,1,0
68.0006,6872,668,-14772,480,-353,283,1,0
68.03383,6692,692,-15452,480,-182,-27,1,0
68.06705,6868,560,-15208,528,-406,60,1,0
68.08367,6820,568,-14916,496,-611,470,1,0
68.11691,6980,840,-14884,496,38,741,1,0
68.15014,6904,712,-14924,512,209,147,1,0
68.16676,7044,560,-15168,480,-657,74,1,0
68.16676,6896,692,-15164,528,-1117,609,1,0
68.23322,6848,820,-14976,512,-770,730,1,0
68.26645,7048,944,-14588,512,-233,445,1,0
68.29968,6980,892,-15172,544,-250,250,1,0
68.33292,6976,804,-14844,512,-618,472,1,0
68.38226,7004,832,-15088,496,-787,368,1,0
68.38226,7220,752,-14948,496,-365,335,1,0
68.41549,7156,888,-14740,512,-458,189,1,0
68.44864,7164,924,-14820,480,-154,201,1,0
68.48184,7192,848,-14640,512,-176,164,1,0
68.53163,7116,784,-15056,496,-663,512,1,0
68.56483,7224,688,-14920,544,-611,496,1,0
68.59802,7180,932,-14588,528,-185,28,1,0
68.59802,7144,828,-14940,480,-537,113,1,0
68.63122,7152,1080,-15100,512,-454,554,1,0
68.68101,7488,1000,-15048,496,-423,620,1,0
68.7142,7388,976,-14568,512,-567,500,1,0
68.7308,7084,984,-14380,496,-158,72,1,0
68.7972,7084,844,-14860,496,-151,-136,1,0
68.7972,7364,864,-14912,528,-240,211,1,0
68.83039,7304,940,-14716,496,-128,378,1,0
68.84699,7392,808,-14716,512,28,-12,1,0
68.89678,7348,844,-14740,496,-383,-25,1,0
68.89678,7372,1076,-14928,528,-776,46,1,0
68.94701,7204,1000,-14808,544,-517,157,1,0
68.98021,7284,924,-14788,496,26,669,1,0
69.01341,7432,904,-14588,560,-537,458,1,0
69.01341,7436,932,-14496,512,-938,13,1,0
69.07983,7320,952,-14672,528,-759,-284,1,0
69.12964,7328,1028,-14744,496,-294,771,1,0
69.12964,7464,996,-14568,528,-160,510,1,0
69.14624,7588,876,-14720,528,-663,-145,1,0
69.19605,7576,1032,-14512,512,-588,228,1,0
69.21265,7516,972,-14744,528,-240,291,1,0
69.24586,7500,984,-14780,528,-230,13,1,0
69.27906,7388,1068,-14848,496,-252,43,1,0
69.31226,7308,1164,-14640,512,-499,316,1,0
69.34547,7432,1140,-14604,512,-161,282,1,0
69.37868,7648,1152,-14772,496,-131,346,1,0
69.42848,7720,1248,-14576,544,-411,471,1,0
69.42848,7396,1040,-14172,496,56,322,1,0
69.46169,7560,948,-14436,512,539,-3,1,0
69.49524,7528,980,-14860,480,431,-403,1,0
69.54504,7604,956,-14788,512,-1112,228,1,0
69.57837,7452,1332,-14504,480,-1327,456,1,0
69.57837,7544,1280,-14300,512,-168,206,1,0
69.61163,7756,1116,-14736,496,100,176,1,0
69.64487,7728,1000,-14576,496,112,228,1,0
69.69473,7480,856,-14688,512,-332,465,1,0
69.72799,7588,1076,-14616,496,-976,164,1,0
69.72799,7592,1188,-14368,512,-708,-140,1,0
69.76124,7540,1148,-14328,528,-282,-457,1,0
69.77785,7652,1028,-14684,464,-318,-378,1,0
69.84435,7632,1144,-14740,528,67,-47,1,0
69.84435,7536,1080,-14832,528,-834,708,1,0
69.91083,7660,1132,-14256,528,-872,130,1,0
69.91083,7724,1084,-14460,528,272,60,1,0
69.94408,7780,904,-14760,528,108,86,1,0
69.99395,7808,952,-14852,544,-843,508,1,0
70.0272,7564,1116,-14368,528,-757,219,1,0
70.06045,7540,1156,-14124,496,-202,-28,1,0
70.07706,7616,1068,-14488,528,152,-227,1,0
70.0937,7816,1168,-14872,512,-153,128,1,0
70.14356,7872,1152,-14668,528,-885,413,1,0
70.17681,7628,1216,-14352,528,-641,11,1,0
70.21005,7628,1204,-14500,544,-309,-296,1,0
70.2433,7656,1112,-14528,544,14,-136,1,0
70.25992,7588,1184,-14472,496,129,4,1,0
70.29317,7776,1132,-14492,480,-174,-29,1,0
70.32642,7772,1124,-14496,512,-261,-16,1,0
70.35966,7744,1060,-14688,544,-173,281,1,0
70.37628,7640,956,-14660,496,-346,228,1,0
70.44278,7852,1224,-14720,480,-484,488,1,0
70.44278,7768,1188,-14612,496,-667,564,1,0
70.4594,7644,1076,-14328,512,-659,210,1,0
70.50928,7644,1216,-14148,512,-449,-266,1,0
70.54253,7804,1028,-14548,544,-180,-234,1,0
70.54253,7936,1252,-14612,528,23,86,1,0
70.5924,7844,1132,-14384,512,-155,198,1,0
70.62565,7808,1092,-14408,528,-189,-10,1,0
70.6589,7860,1168,-14656,512,-249,-75,1,0
70.6589,7648,1100,-14660,496,-409,-209,1,0
70.72539,7704,1292,-14292,512,-75,-306,1,0
70.72539,7748,1212,-14452,560,-172,-513,1,0
70.77527,7776,1088,-14524,544,-715,-294,1,0
70.80851,7828,1088,-14588,480,-499,-192,1,0
70.84175,7592,1096,-14508,528,175,67,1,0
70.89162,7568,1068,-14416,528,5,-269,1,0
70.89162,7688,1060,-14680,528,-365,-267,1,0
70.92482,7772,1136,-14780,496,-327,367,1,0
70.95811,7824,1352,-14592,528,-414,614,1,0
71.00784,7616,1004,-14256,544,-90,403,1,0
71.04123,7716,1040,-14200,496,24,-95,1,0
71.07399,7752,1036,-14648,528,121,-486,1,0
71.09061,7820,1004,-14776,528,-416,-230,1,0
71.10724,7740,1204,-14424,512,-730,38,1,0
71.157,7772,1124,-14452,512,-259,-103,1,0
71.19025,7756,1060,-14532,512,-103,-156,1,0
71.22346,7656,1056,-14480,496,-333,-303,1,0
71.22346,7696,980,-14664,528,-358,-160,1,0
71.30649,7676,1120,-14612,512,-446,-111,1,0
71.30649,7688,1216,-14408,496,-352,-49,1,0
71.3397,7684,1048,-14640,544,-91,-255,1,0
71.3729,7760,1072,-14472,512,-224,-344,1,0
71.40612,7760,1092,-14604,544,-330,44,1,0
71.42272,7688,1144,-14544,512,-419,-68,1,0
71.45592,7632,1016,-14696,496,-826,-13,1,0
71.52235,7636,1136,-14480,528,-624,-205,1,0
71.53895,7532,1116,-14368,496,-172,-235,1,0
71.57216,7620,1184,-14536,528,555,-84,1,0
71.58877,7660,1088,-14632,480,-62,-136,1,0
71.63895,7632,1080,-14416,528,-590,-201,1,0
71.63895,7548,1224,-14488,528,363,-179,1,0
71.68873,7684,1116,-14648,528,-266,0,1,0
71.70533,7536,976,-14668,512,-672,-395,1,0
71.75513,7652,1052,-14636,512,-296,-141,1,0
71.78833,7528,1112,-14536,496,-86,-5,1,0
71.82153,7504,1084,-14532,544,-470,-313,1,0
71.87133,7556,1140,-14824,528,-374,-395,1,0
71.87133,7756,1156,-14732,512,-584,249,1,0
71.88793,7540,1096,-14540,512,-452,413,1,0
71.93773,7424,1092,-14256,544,-158,223,1,0
71.97093,7500,960,-14272,512,-220,-477,1,0
71.97093,7548,1076,-14656,528,514,-321,1,0
72.0211,7628,1000,-14808,528,5,36,1,0
72.0543,7612,1104,-14732,560,-872,3,1,0
72.08757,7516,1144,-14492,512,-698,-13,1,0
72.1208,7572,1228,-14568,544,-105,-331,1,0
72.17064,7432,1120,-14660,512,547,-142,1,0
72.17064,7468,1040,-14772,528,-120,-245,1,0
72.20387,7552,1156,-14688,512,-1117,141,1,0
72.23709,7392,1204,-14612,528,-348,217,1,0
72.27032,7456,1084,-14512,512,479,-166,1,0
72.32015,7556,904,-14696,528,234,-439,1,0
72.32015,7592,936,-14724,496,-595,-216,1,0
72.38661,7532,1088,-14676,528,-634,-124,1,0
72.38661,7488,1144,-14576,512,-110,-161,1,0
72.41985,7408,960,-14708,528,259,-25,1,0
72.46969,7580,984,-14664,512,-440,-93,1,0
72.50291,7500,1060,-14724,528,-872,-149,1,0
72.50291,7408,1168,-14628,496,-359,-69,1,0
72.56937,7344,1084,-14532,576,266,-42,1,0
72.56937,7408,1028,-14564,544,79,-188,1,0
72.61922,7496,1060,-14628,560,-272,-308,1,0
72.65244,7428,1096,-14668,512,-642,-46,1,0
72.68568,7380,1092,-14664,544,-27,-69,1,0
72.71891,7448,952,-14712,528,17,-131,0,0
72.73553,7496,1056,-14616,528,-363,-536,0,0
72.80198,7484,1144,-14936,528,-881,46,0,0
72.80198,7428,1384,-14604,496,-868,313,0,0
72.83521,7248,1100,-14280,496,21,119,0,0
72.86844,7356,1008,-14636,512,469,-616,0,0
72.91828,7372,984,-14824,528,294,-73,0,0
72.91828,7260,972,-14688,528,-259,293,0,0
72.95151,7388,1048,-14600,480,-245,314,0,0
73.00135,7404,1156,-14560,512,-69,-275,0,0
73.01797,7348,932,-14736,512,-122,-34,0,0
73.03458,7392,892,-14904,496,-297,-508,0,0
73.06781,7516,1048,-14908,528,-1004,-411,0,0
73.10104,7352,1188,-14756,544,-627,155,0,0
73.13425,7240,1144,-14612,544,664,490,0,0
73.1841,7348,964,-14704,512,-158,-305,0,0
73.20071,7260,1000,-14724,528,-896,-353,0,0
73.25055,7508,1108,-14732,544,-281,-65,0,0
73.25055,7344,1000,-14788,496,150,160,0,0
73.28378,7268,952,-14640,512,37,4,0,0
73.31701,7280,984,-14704,512,-199,-325,0,0
73.36684,7404,964,-14648,528,-187,-267,0,0
73.36684,7316,1048,-14704,544,14,-231,0,0
73.4333,7228,940,-14880,528,-338,-170,0,0
73.44991,7272,960,-14740,544,-797,-61,0,0
73.48314,7296,1060,-14652,512,-186,-100,0,0
73.51637,7296,944,-14820,528,-108,-338,0,0
73.54959,7268,1048,-14896,512,-369,121,0,0
73.58283,7268,1040,-14580,480,-316,76,0,0
73.58283,7176,1084,-14720,528,-24,-55,0,0
73.63268,7292,1000,-14944,544,-139,46,0,0
73.6659,7448,1012,-14780,528,-491,435,0,0
73.69913,7248,1064,-14568,496,-336,106,0,0
73.73235,7216,832,-14608,544,-282,-556,0,0
73.7822,7236,968,-14820,544,-172,-491,0,0
73.81543,7272,984,-14920,528,-603,-21,0,0
73.83204,7272,1068,-14776,528,-636,-34,0,0
73.84866,7336,1064,-14564,528,-294,289,0,0
73.88188,7160,1064,-14556,512,650,129,0,0
73.88188,7216,984,-14892,528,386,-163,0,0
73.93172,7188,1024,-15004,528,-513,79,0,0
73.96495,7336,1068,-14736,528,-514,26,0,0
73.99817,7288,1064,-14740,480,-658,174,0,0
74.0314,7276,1096,-14804,528,-233,144,0,0
74.08125,7264,1080,-14584,480,-427,-216,0,0
74.11447,7172,1100,-14952,528,-212,-149,0,0
74.11447,7240,988,-14724,512,-400,-41,0,0
74.14771,7348,964,-14548,544,-151,-119,0,0
74.18093,7164,1056,-14828,544,308,-129,0,0
74.23077,7212,976,-14916,544,-782,-334,0,0
74.26399,6992,968,-14728,528,-222,121,0,0
74.29723,7136,964,-14712,512,531,-65,0,0
74.29723,7252,840,-14768,512,-308,-275,0,0
74.34707,7184,948,-14868,544,-568,-385,0,0
74.3803,7260,996,-14904,544,-348,-266,0,0
74.41353,7284,1088,-15000,528,-429,37,0,0
74.41353,7124,1168,-14852,512,-371,-102,0,0
74.44675,7188,1000,-14756,496,-480,93,0,0
74.52983,7060,984,-14512,496,511,-840,0,0
74.52983,7240,868,-14948,496,206,-283,0,0
74.56306,7284,1096,-15080,512,-157,128,0,0
74.59628,7256,1020,-14760,480,-957,91,0,0
74.62951,6908,904,-14372,528,-441,119,0,0
74.67934,7028,996,-14816,496,631,-622,0,0
74.67934,7156,940,-14956,480,145,-651,0,0
74.71259,7176,968,-14956,528,-1040,-420,0,0
74.74581,7008,1084,-14716,544,-771,-393,0,0
74.79565,6928,1092,-14672,544,-321,-188,0,0
74.82888,7104,1136,-14796,496,151,-658,0,0
74.82888,6936,988,-15040,512,545,-497,0,0
74.86211,6844,804,-14980,544,-82,-238,0,0
74.89534,6968,980,-15080,496,-549,-384,0,0
74.94516,6828,816,-14976,512,-1154,-316,0,0
74.97841,6652,988,-14704,528,-412,-437,0,0
74.97841,6772,900,-14784,496,624,234,0,0
75.04486,6868,760,-15156,544,115,-617,0,0
75.06148,6748,772,-15156,544,-532,88,0,0
75.06148,6960,908,-15096,512,-504,-530,0,0
75.12793,6632,1008,-15124,496,-866,-319,0,0
75.21132,6672,952,-14868,528,-600,-171,0,0
75.21132,6664,1036,-15020,528,1094,-529,0,0
75.24459,6764,808,-15232,544,493,-290,0,0
75.27783,6592,772,-15000,528,-619,-196,0,0
75.27783,6744,1060,-14876,528,-282,-134,0,0
75.31107,6748,848,-14864,512,150,-165,0,0
75.34433,6508,692,-15124,544,181,-163,0,0
75.36095,6620,684,-15096,528,-750,-327,0,0
75.3942,6528,816,-14860,528,-298,-369,0,0
75.42744,6624,716,-15224,544,241,-385,0,0
75.46069,6740,772,-15428,528,-573,102,0,0
75.49393,6700,784,-15036,496,-856,-94,0,0
75.51055,6448,748,-14836,496,15,-526,0,0
75.54381,6344,820,-15156,512,238,-661,0,0
75.57706,6548,724,-15252,544,-321,-516,0,0
75.6103,6492,832,-15252,544,-698,-381,0,0
75.64355,6492,908,-14964,544,29,132,0,0
75.69341,6588,844,-15096,528,162,-136,0,0
75.69341,6596,804,-15080,528,-233,-614,0,0
75.72667,6380,696,-15136,544,-284,-475,0,0
75.75992,6292,680,-15316,544,-470,-584,0,0
75.79316,6340,832,-15256,512,-307,-160,0,0
75.79316,6416,812,-15184,528,-192,-298,0,0
75.84303,6356,732,-15172,528,-182,-504,0,0
75.90952,6336,680,-15376,528,-137,-342,0,0
75.92616,6276,664,-15172,528,-386,-272,0,0
75.94277,6268,792,-15328,512,-100,-100,0,0
75.99264,6264,804,-15292,512,-235,-364,0,0
76.02589,6272,800,-15296,528,-494,-260,0,0
76.02589,6100,796,-15112,512,-66,-203,0,0
76.07576,6092,624,-15316,512,203,-250,0,0
76.09238,6232,564,-15272,512,-10,-55,0,0
76.14226,6212,752,-15260,496,-671,-250,0,0
76.1755,6176,732,-15428,512,-486,-386,0,0
76.20874,6060,772,-15324,528,234,-394,0,0
76.24199,6180,704,-15564,544,-477,-110,0,0
76.25861,6100,672,-15216,544,-904,-119,0,0
76.29185,5928,784,-15000,544,522,-263,0,0
76.3251,6160,568,-15492,528,514,-10,0,0
76.35835,6248,520,-15648,560,-860,127,0,0
76.35835,6164,632,-14892,528,-599,42,0,0
76.44146,5856,732,-15000,528,396,-620,0,0
76.44146,5992,756,-15512,544,668,-326,0,0
76.47465,6132,688,-15536,528,257,92,0,0
76.50797,6008,420,-15416,512,-243,-370,0,0
76.55783,6024,636,-15244,544,-373,-453,0,0
76.55783,5976,564,-15288,496,-395,-317,0,0
76.59108,6004,532,-15464,528,35,-257,0,0
76.62418,5964,588,-15416,512,55,-294,0,0
76.65757,5840,512,-15528,512,-225,-328,0,0
76.70744,5916,432,-15260,496,-804,-240,0,0
76.74021,5968,576,-15092,496,-561,24,0,0
76.77346,5888,532,-15436,544,-130,-193,0,0
76.80672,5984,524,-15588,544,125,-380,0,0
76.82333,5800,536,-15452,528,148,-35,0,0
76.85651,5940,580,-15536,528,-124,-444,0,0
76.88972,5840,512,-15396,512,51,-102,0,0
76.88972,5700,444,-15232,528,198,-134,0,0
76.95617,5876,188,-15444,528,-295,-251,0,0
76.97279,5796,432,-15312,512,-260,-120,0,0
77.006,5716,428,-15600,496,-464,-476,0,0
77.03923,5804,420,-15264,496,-271,-175,0,0
77.07245,5844,492,-15468,544,168,21,0,0
77.07245,5736,468,-15444,496,-94,-156,0,0
77.08907,5764,368,-15352,528,-465,-246,0,0
77.1555,5676,424,-15480,528,16,-80,0,0
77.18873,5668,340,-15536,512,-496,-430,0,0
77.22195,5696,352,-15600,528,-514,-114,0,0
77.25517,5784,368,-15564,512,-168,334,0,0
77.30474,5796,528,-15048,528,-380,-223,0,0
77.30474,5644,460,-15272,528,-175,-605,0,0
77.33822,5532,464,-15820,528,234,-275,0,0
77.37144,5688,428,-15572,544,-330,-364,0,0
77.42127,5556,192,-15408,512,-399,177,0,0
77.42127,5676,368,-15312,512,66,-318,0,0
77.45449,5628,384,-15452,528,-186,-303,0,0
77.48771,5552,292,-15364,528,-172,32,0,0
77.52094,5536,156,-15424,512,-57,101,0,0
77.57076,5520,232,-15588,528,-130,-204,0,0
77.60399,5512,392,-15548,560,-267,-117,0,0
77.60399,5612,336,-15428,512,-100,113,0,0
77.63721,5684,236,-15404,528,283,-22,0,0
77.70364,5744,264,-15528,496,-644,-471,0,0
77.72025,5460,272,-15448,560,-66,-500,0,0
77.75346,5468,280,-15500,528,-81,-90,0,0
77.78669,5576,256,-15288,560,-225,-63,0,0
77.81992,5532,228,-15300,560,-95,97,0,0
77.83652,5444,356,-15404,496,276,-91,0,0
77.86974,5436,212,-15676,512,-23,-285,0,0
77.90296,5480,268,-15596,544,-468,-385,0,0
77.93618,5440,352,-15632,512,230,121,0,0
77.93618,5612,144,-15444,512,-207,-34,0,0
77.98602,5440,188,-15592,544,-200,227,0,0
78.01924,5452,176,-15500,544,276,155,0,0
78.05245,5516,108,-15720,544,-352,-361,0,0
78.08568,5396,172,-15584,528,-417,-229,0,0
78.10229,5528,176,-15944,512,-100,61,0,0
78.10229,5540,160,-15280,544,-470,142,0,0
78.16874,5444,64,-15268,528,-248,-663,0,0
78.20196,5364,156,-15844,528,20,-408,0,0
78.23518,5436,136,-15752,560,-229,-167,0,0
78.26839,5328,140,-15624,528,-180,-331,0,0
78.26839,5444,124,-15432,512,-52,-499,0,0
78.35146,5352,152,-15556,528,-5,21,0,0
78.35146,5420,136,-15644,528,-91,24,0,0
78.38467,5340,-28,-15604,512,-499,-114,0,0
78.41789,5344,64,-15876,528,38,-176,0,0
78.46773,5284,56,-15600,512,-273,69,0,0
78.46773,5460,268,-15468,544,-126,-89,0,0
78.50095,5192,192,-15348,512,-379,304,0,0
78.53416,5332,108,-15652,528,-350,140,0,0
78.58378,5292,-12,-15468,528,-20,-396,0,0
78.60062,5412,24,-15604,544,6,-53,0,0
78.65045,5400,160,-15560,544,-103,103,0,0
78.65045,5376,36,-15568,528,-259,149,0,0
78.70028,5408,-36,-15556,544,113,111,0,0
78.7169,5396,-64,-15632,496,-259,-280,0,0
78.76673,5384,84,-15404,528,-209,264,0,0
78.79993,5448,-140,-15504,560,-106,227,0,0
78.79993,5396,32,-15344,528,-226,-113,0,0
78.883,5420,52,-15572,544,-217,136,0,0
78.883,5412,-76,-15524,496,-217,-28,0,0
78.91622,5276,-56,-15624,496,-404,-172,0,0
78.94945,5492,24,-15712,528,-521,287,0,0
78.98267,5580,44,-15220,528,-621,-31,0,0
79.01589,5364,-12,-15156,544,-165,-265,0,0
79.03249,5316,-56,-15812,560,13,57,0,0
79.06573,5228,-100,-15712,496,-513,-154,0,0
79.09895,5232,-52,-15452,528,-488,-109,0,0
79.14877,5388,96,-15552,544,-169,-153,0,0
79.182,5424,-36,-15508,512,-70,-171,0,0
79.21523,5404,-16,-15640,544,-172,67,0,0
79.24844,5316,-48,-15796,528,-150,458,0,0
79.26505,5440,40,-15572,544,-213,485,0,0
79.28167,5400,128,-15388,528,-506,209,0,0
79.3315,5508,24,-15568,528,-398,2,0,0
79.36472,5376,-44,-15676,560,-402,-36,0,0
79.36472,5432,-16,-15688,560,-238,-2,0,0
79.43116,5436,-28,-15572,544,-341,180,0,0
79.43116,5452,-48,-15656,528,-330,-111,0,0
79.48099,5472,-28,-15360,544,-100,77,0,0
79.49751,5536,-40,-15580,560,-243,109,0,0
79.54743,5384,-184,-15764,544,-102,-162,0,0
79.56404,5464,0,-15652,512,-166,53,0,0
79.58065,5360,52,-15620,544,83,120,0,0
79.63048,5472,120,-15500,512,-238,-139,0,0
79.6637,5436,-68,-15584,528,-229,57,0,0
79.69693,5424,16,-15804,560,-29,-72,0,0
79.73015,5560,56,-15652,544,-288,-246,0,0
79.77998,5480,-36,-15740,560,-661,51,0,0
79.77998,5516,-32,-15144,544,-529,171,0,0
79.8132,5532,-28,-15240,560,-107,-408,0,0
79.84643,5472,-164,-16104,544,-273,-305,0,0
79.87965,5396,-92,-15812,512,-298,-23,0,0
79.89625,5384,-80,-15584,544,19,52,0,0
79.96256,5364,-20,-15452,528,-181,-270,0,0
79.97931,5520,-144,-15580,528,-175,-123,0,0
79.99592,5280,-88,-15624,512,-209,127,0,0
80.04575,5332,-92,-15560,528,-143,3,0,0
80.07897,5412,-64,-15804,544,-193,-114,0,0
80.11218,5428,-40,-15620,528,-359,72,0,0
80.11218,5348,56,-15640,528,-458,266,0,0
80.14541,5376,4,-15716,528,-584,-40,1,0
80.22846,5452,-244,-15536,512,-741,-30,1,0
80.22846,5420,-72,-15532,544,-368,111,1,0
80.24508,5468,-100,-15508,544,-126,51,1,0
80.29491,5400,-28,-15488,544,-337,-90,1,0
80.37795,5376,32,-15528,528,-280,-80,1,0
80.37795,5380,68,-15564,528,-370,-6,1,0
80.41118,5464,-16,-15716,544,-393,-71,1,0
80.41118,5368,-140,-15704,544,174,375,1,0
80.4444,5400,-28,-15612,576,-325,373,1,0
80.49424,5480,-8,-15340,528,-404,-143,1,0
80.52746,5456,64,-15944,512,-217,-195,1,0
80.56068,5356,-72,-15540,528,-431,439,1,0
80.56068,5532,-48,-15140,560,-427,-330,1,0
80.6105,5312,-76,-15436,512,-266,-383,1,0
80.62712,5352,-72,-15940,560,-223,-70,1,0
80.67695,5348,-136,-15620,576,-361,-296,1,0
80.71017,5460,-84,-15492,544,-281,-264,1,0
80.71017,5408,-52,-15528,544,-99,120,1,0
80.79321,5380,24,-15484,496,-323,2,1,0
80.79321,5268,-76,-15496,544,-106,40,1,0
80.82644,5352,-88,-15624,528,-192,-3,1,0
80.85966,5332,4,-15624,544,-148,50,1,0
80.89288,5320,-40,-15504,560,-481,66,1,0
80.90949,5368,-92,-15456,512,-538,157,1,0
80.94271,5352,-92,-15616,544,-306,-80,1,0
81.00914,5340,-36,-15644,512,-369,145,1,0
81.00914,5376,-16,-15596,544,-207,-11,1,0
81.05898,5428,-60,-15480,544,-267,-86,1,0
81.07559,5372,8,-15524,528,-249,17,1,0
81.12543,5364,-76,-15604,528,-207,203,1,0
81.15865,5324,-112,-15496,560,-204,114,1,0
81.17525,5372,-88,-15720,528,-355,4,1,0
81.20847,5428,-12,-15508,576,-173,192,1,0
81.2417,5432,56,-15532,512,-249,-204,1,0
81.27492,5472,-20,-15896,544,-310,-45,1,0
81.30814,5524,-120,-15428,512,-478,226,1,0
81.35797,5380,32,-15000,512,-312,-356,1,0
81.35797,5340,-52,-15392,512,-231,-298,1,0
81.39154,5168,-140,-15688,544,-448,-168,1,0
81.42477,5376,-76,-15548,544,-520,-58,1,0
81.47467,5380,-96,-15468,560,-128,-99,1,0
81.47467,5416,-120,-15440,528,-105,-195,1,0
81.54115,5416,-156,-15756,528,-252,-59,1,0
81.57438,5296,-204,-15548,544,-268,121,1,0
81.57438,5264,-156,-15496,592,42,160,1,0
81.60762,5436,-48,-15632,528,-451,-291,1,0
81.65747,5440,-16,-15604,512,-570,77,1,0
81.69071,5444,-8,-15756,528,-89,165,1,0
81.72395,5340,-76,-15660,544,-462,-136,1,0
81.72395,5380,-216,-15464,528,-153,-83,1,0
81.7738,5404,-120,-15352,560,-502,-36,1,0
81.80703,5448,-156,-15592,544,-203,-30,1,0
81.84026,5392,-96,-15656,560,-42,-9,1,0
81.8735,5496,-128,-15648,560,-63,-48,1,0
81.90674,5368,-52,-15564,528,-244,75,1,0
81.9566,5432,-76,-15556,512,-249,426,1,0
81.9566,5444,-128,-15536,528,-391,2,1,0
81.98982,5460,-40,-15560,576,-414,-37,1,0
82.02306,5344,112,-15668,512,-349,-17,1,0
82.10616,5500,-124,-15728,512,-453,187,1,0
82.10616,5544,-60,-15300,544,-456,-191,1,0
82.1394,5356,-16,-15172,496,-126,-396,1,0
82.17263,5280,4,-15856,560,-210,-157,1,0
82.17263,5256,-136,-15812,560,-349,-150,1,0
82.20587,5340,-36,-15368,528,-106,-203,1,0
82.25572,5464,-36,-15440,560,-310,-75,1,0
82.28896,5480,32,-15516,576,-156,18,1,0
82.28896,5344,72,-15524,544,-378,-257,1,0
82.33881,5296,-244,-15684,528,-398,-71,1,0
82.40527,5384,-188,-15596,528,-373,102,1,0
82.40527,5384,-148,-15344,544,-280,192,1,0
82.43851,5420,-136,-15704,544,-213,-132,1,0
82.47173,5308,-48,-15756,528,-467,-18,0,0
82.50498,5320,-92,-15508,560,-79,118,0,0
82.55484,5376,-44,-15692,544,-195,-116,0,0
82.55484,5444,-48,-15632,512,-560,32,0,0
82.58808,5396,48,-15512,560,-315,121,0,0
82.62132,5284,-20,-15372,544,-590,-98,0,0
82.65455,5284,-80,-15684,528,-24,102,0,0
82.7044,5404,-84,-15644,544,-218,121,0,0
82.73763,5396,16,-15580,544,-147,191,0,0
82.73763,5444,4,-15676,528,30,170,0,0
82.75425,5356,-76,-15660,528,-305,140,0,0
82.82072,5372,-172,-15620,528,-145,159,0,0
82.85396,5312,-44,-15616,560,-567,-52,0,0
82.85396,5360,0,-15432,544,-365,-113,0,0
82.93704,5376,-60,-15932,560,-178,42,0,0
82.93704,5560,96,-15388,528,-604,-244,0,0
82.95367,5344,12,-15156,512,-5,-291,0,0
83.03676,5272,64,-15912,560,-294,-199,0,0
83.05338,5356,-180,-15912,512,-178,-46,0,0
83.06999,5348,-28,-15460,560,-400,16,0,0
83.08661,5380,-52,-15536,560,-94,121,0,0
83.11984,5440,-88,-15448,560,-281,53,0,0
83.13646,5408,-120,-15576,560,-249,166,0,0
83.18633,5364,-60,-15620,528,-175,102,0,0
83.21956,5360,-80,-15652,544,-153,68,0,0
83.26942,5448,48,-15648,528,-462,26,0,0
83.26942,5348,156,-15460,496,19,224,0,0
83.30265,5416,20,-15640,528,-443,-194,0,0
83.31927,5284,-148,-15504,528,-529,19,0,0
83.36912,5448,-92,-15604,560,-174,75,0,0
83.36912,5384,-112,-15516,544,-267,-62,0,0
83.41898,5596,-164,-15608,544,-397,153,0,0
83.45221,5480,-100,-15652,576,-339,-98,0,0
83.48544,5436,12,-15684,528,-2,58,0,0
83.50208,5540,-116,-15476,528,-34,76,0,0
83.56854,5560,-196,-15620,560,-471,-22,0,0
83.56854,5488,-128,-15508,528,-132,308,0,0
83.60178,5492,-208,-15584,528,-517,202,0,0
83.63502,5580,-144,-15360,544,-109,8,0,0
83.66825,5500,-96,-15416,560,-350,-107,0,0
83.70149,5368,36,-15456,576,-265,-72,0,0
83.75134,5620,-68,-15476,512,-593,154,0,0
83.78458,5460,-40,-15244,560,-271,-516,0,0
83.83442,5492,-8,-15584,512,-179,-422,0,0
83.83442,5496,-68,-15792,560,-225,-169,0,0
83.85104,5376,-208,-15628,512,-436,-437,0,0
83.90091,5436,-44,-15696,544,-337,-31,0,0
83.93383,5468,100,-15596,544,141,-113,0,0
83.93383,5376,-108,-15480,528,-565,-170,0,0
83.984,5308,-112,-15584,544,-157,194,0,0
84.05046,5404,-172,-15744,544,-209,138,0,0
84.05046,5524,-100,-15788,560,-265,-128,0,0
84.10033,5544,-40,-15608,512,-432,157,0,0
84.11695,5456,68,-15608,528,-517,198,0,0
84.1668,5300,-56,-15544,528,-774,-177,0,0
84.1668,5432,-36,-15536,496,-132,251,0,0
84.20004,5496,-92,-15316,560,-354,-114,0,0
84.28313,5412,140,-15624,528,-203,-98,0,0
84.28313,5444,-108,-15584,560,-384,148,0,0
84.29975,5288,-152,-15548,544,-162,91,0,0
84.3496,5448,-120,-15540,528,-9,-79,0,0
84.38284,5448,-112,-15740,528,-121,65,0,0
84.39945,5464,-88,-15636,560,-370,176,0,0
84.43269,5416,-156,-15596,528,-257,180,0,0
84.46592,5580,-144,-15520,560,-253,6,0,0
84.48255,5412,-36,-15632,544,-326,-165,0,0
84.53202,5504,-20,-15596,528,-335,-140,0,0
84.58168,5564,-84,-15624,560,-719,-13,0,0
84.61488,5432,-52,-15152,560,-389,-302,0,0
84.61488,5364,-64,-15560,528,-34,-481,0,0
84.6647,5348,-116,-15772,544,-133,-247,0,0
84.6813,5340,-116,-15540,576,-379,-207,0,0
84.71451,5388,-132,-15456,528,-228,58,0,0
84.76432,5560,-64,-15576,544,-3,47,0,0
84.76432,5460,-168,-15700,512,-223,-26,0,0
84.83073,5264,-92,-15660,528,-204,-23,0,0
84.84734,5388,-200,-15456,544,-93,68,0,0
84.88055,5424,-44,-15576,528,-265,69,0,0
84.89716,5408,-12,-15560,560,-453,182,0,0
84.94697,5436,40,-15612,544,-507,95,0,0
84.99678,5452,-116,-15500,576,-452,-129,0,0
84.99678,5444,-180,-15496,528,-210,-79,0,0
85.02999,5368,-112,-15500,576,-344,-19,0,0
85.0632,5464,-156,-15420,576,-139,90,0,0
85.09641,5460,-124,-15448,560,-214,157,0,0
85.11279,5324,-180,-15648,528,-320,-23,0,0
85.17943,5332,-44,-15628,544,-73,139,0,0
85.21263,5224,-212,-15604,544,-281,267,0,0
85.21263,5520,-200,-15796,544,-615,315,0,0
85.24585,5588,-152,-15648,544,-427,381,0,0
85.29565,5564,-72,-15628,592,-514,431,0,0
85.31226,5404,36,-15568,576,-570,356,0,0
85.36208,5712,-4,-15656,592,-663,567,0,0
85.39528,5740,-76,-15200,544,-484,418,0,0
85.39528,5564,-60,-15412,528,-664,192,0,0
85.44546,5532,-24,-15636,544,-100,456,0,0
85.47866,5596,-8,-15608,576,-531,185,0,0
85.51191,5600,-32,-15368,560,-408,233,0,0
85.54512,5848,28,-15424,560,-382,499,0,0
85.56173,5768,-4,-15604,544,-435,373,0,0
85.62816,5736,-80,-15432,576,-501,437,0,0
85.62816,5700,44,-15568,560,-475,617,0,0
85.72778,5892,-20,-15576,528,-605,621,0,0
85.74441,5872,28,-15388,512,-532,555,0,0
85.77763,5824,156,-15348,512,-577,706,0,0
85.77763,5936,336,-15356,560,-531,707,0,0
85.86066,5904,204,-15204,560,-619,702,0,1
85.86066,6060,96,-15292,496,-860,308,0,1
85.89388,6012,296,-15364,544,-646,469,0,1
85.89388,6124,288,-15192,512,-622,579,0,1
85.92709,6176,196,-15424,560,-649,656,0,1
85.92709,6176,308,-15228,544,-676,481,0,1
85.96031,6196,268,-15416,528,-631,472,0,1
85.99352,6224,248,-15208,528,-405,622,0,1
86.04334,6208,392,-15260,528,-448,330,0,1
86.04334,6240,356,-15328,528,-602,372,0,1
86.07656,6252,288,-15040,544,-664,372,0,1
86.10978,6396,384,-15296,544,-568,483,0,1
86.143,6464,544,-15288,560,-598,815,0,1
86.19282,6364,564,-14884,560,-293,554,0,1
86.22604,6288,532,-15124,592,-493,11,0,1
86.22604,6352,540,-15308,528,-766,360,0,1
86.25925,6500,500,-15076,560,-117,417,0,1
86.29246,6624,424,-15088,528,-502,569,0,1
86.34228,6580,468,-15044,512,-504,435,0,1
86.34228,6688,472,-15152,528,-542,588,0,1
86.37586,6548,456,-15212,560,-917,540,0,1
86.40908,6444,608,-15216,528,-975,613,0,1
86.45892,6664,668,-15076,576,-770,407,1,1
86.49215,6824,824,-15092,544,-728,338,1,1
86.50877,6656,748,-14936,560,-679,448,1,1
86.52538,6672,792,-15116,592,-545,604,1,1
86.5586,6740,828,-15020,560,-385,431,1,1
86.60843,6720,784,-14960,528,-600,441,1,1
86.64165,6788,804,-14808,544,-570,504,1,1
86.67488,6892,784,-14928,528,-402,329,1,1
86.7081,6808,704,-15048,528,-309,306,1,1
86.75794,6940,712,-14956,544,-242,272,1,1
86.75794,6960,860,-15140,528,-370,570,1,1
86.79115,6976,800,-14868,496,-576,387,1,1
86.82439,6984,704,-14944,496,-332,166,1,1
86.85761,7048,804,-15384,560,-685,200,1,1
86.85761,7000,920,-15028,544,-799,1149,1,1
86.94067,6876,1096,-14552,528,-362,871,1,1
86.95728,7040,864,-14608,544,7,-79,1,1
86.97391,6984,848,-15048,512,-99,-121,1,1
87.00713,7136,904,-15096,560,-795,450,1,1
87.05696,7224,1024,-14856,560,-764,614,1,1
87.05696,7132,1080,-14820,544,-252,323,1,1
87.07359,7136,916,-14632,576,-550,330,1,1
87.09019,7064,1028,-14800,560,-110,454,1,1
87.14003,7228,852,-14884,560,2,306,1,1
87.14003,7304,904,-15032,544,-657,621,1,1
87.18987,7404,984,-14712,544,-1077,420,1,1
87.22309,7096,1088,-14568,560,-992,270,1,1
87.30616,7172,1040,-14760,560,-523,408,1,1
87.30616,7352,1064,-14720,576,-504,353,1,1
87.33938,7388,1084,-14680,544,-542,311,1,1
87.3726,7416,1116,-14604,544,-515,178,1,1
87.3726,7432,992,-14524,560,-728,40,1,1
87.40584,7296,1276,-14648,560,-500,151,1,1
87.43906,7520,1172,-14676,560,125,-120,1,1
87.45568,7224,1196,-14812,576,-41,144,1,1
87.52213,7444,1180,-14892,528,-509,561,1,1
87.52213,7644,1112,-14720,576,-789,393,1,1
87.60519,7620,1320,-14700,576,-393,266,1,1
87.60519,7332,1228,-14520,560,-381,288,1,1
87.63843,7404,1248,-14412,528,15,173,1,1
87.63843,7476,1132,-14768,576,-152,124,1,1
87.67165,7416,1060,-14708,560,-204,703,1,1
87.70488,7704,1168,-14300,528,-416,180,1,1
87.73811,7576,1352,-14492,560,-495,599,1,1
87.78793,7756,1132,-14392,544,-601,113,1,1
87.82117,7588,1164,-14672,544,-234,108,1,1
87.8544,7492,1200,-14468,528,448,81,1,1
87.8544,7556,1084,-14596,528,11,784,1,1
87.93745,7556,1232,-14508,528,-621,127,1,1
87.93745,7520,1252,-14260,528,-559,185,1,1
87.97068,7700,1208,-14416,512,20,-54,1,1
87.97068,7608,1048,-14496,560,11,428,1,1
88.02052,7652,992,-14776,560,-91,333,1,1
88.03713,7832,960,-14576,560,-401,414,1,1
88.08697,7752,1076,-14604,560,-927,400,1,1
88.12019,7952,1028,-14352,528,-673,-514,1,1
88.15341,7596,964,-14412,560,-450,-584,1,1
88.15341,7620,1240,-14824,544,-409,557,1,1
88.20326,7760,1376,-14840,576,-685,289,1,1
88.23649,7904,1248,-14464,544,-706,558,1,1
88.28632,7728,1284,-14032,560,-397,702,1,1
88.28632,7736,1272,-14152,560,-249,-303,1,1
88.36939,7828,1188,-14616,544,-526,-853,1,1
88.40262,7984,1312,-14872,560,-763,-154,1,1
88.43584,7748,1392,-14696,560,-595,172,1,1
88.43584,7860,1208,-14372,528,-1064,-21,1,1
88.46906,7688,1456,-14256,528,-567,572,1,1
88.51891,7912,1312,-14512,544,91,324,1,1
88.51891,7724,1220,-14504,544,-48,483,1,1
88.55214,7780,1320,-14532,592,-210,435,1,1
88.58537,8020,1232,-14344,560,-234,137,1,1
88.61859,7876,1456,-14456,576,-158,106,1,1
88.66842,8084,1392,-14352,544,-548,-516,1,1
88.70165,7512,1248,-14372,544,-795,313,1,1
88.70165,7784,1320,-14084,560,356,55,1,1
88.73488,7940,1160,-14796,544,-579,8,1,1
88.7681,8008,1372,-14408,560,-1064,76,1,1
88.80133,7808,1480,-14136,544,-102,-26,1,1
88.81794,7840,1396,-14648,528,822,542,1,1
88.88439,7848,1452,-14228,544,874,555,1,1
88.90101,7980,1148,-14448,576,-403,88,1,1
88.93423,7892,1292,-14272,544,-809,128,1,1
88.96745,8076,1484,-14508,528,-267,281,1,1
89.00069,7812,1292,-14312,544,-182,588,1,1
89.00069,7840,1220,-14192,560,-535,89,1,1
89.03391,7808,1284,-14380,560,9,-442,1,1
89.06713,8060,1220,-14484,560,-73,-22,1,1
89.11697,8028,1428,-14508,560,-369,331,1,1
89.11697,7956,1440,-14236,528,-447,236,1,1
89.18343,8032,1284,-14028,528,-342,-39,1,1
89.20004,7988,1216,-14340,560,-224,16,1,1
89.23326,8352,1460,-14592,544,-476,1,1,1
89.26649,8004,1344,-14360,544,-768,-330,1,1
89.29971,7872,1476,-14312,560,-655,-358,1,1
89.29971,7880,1504,-14452,592,-289,60,1,1
89.33295,7944,1444,-14300,560,-336,395,1,1
89.38278,8120,1412,-14416,528,-335,297,1,1
89.41601,8164,1480,-14432,544,-576,156,1,1
89.44923,8020,1420,-14280,544,-396,234,1,1
89.48246,8024,1476,-14416,528,-87,81,1,1
89.49907,8220,1384,-14204,528,298,-485,1,1
89.5323,8056,1344,-14264,576,-109,-349,1,1
89.59875,7932,1200,-14232,560,-897,30,1,1
89.59875,8084,1464,-14160,544,-488,-180,1,1
89.64858,8016,1416,-14524,560,-61,47,1,1
89.66521,8048,1536,-14496,560,255,351,1,1
89.71504,7904,1456,-14148,560,266,258,1,1
89.71504,7996,1272,-14328,560,-7,-70,1,1
89.78148,8064,1388,-14436,560,-493,-53,1,1
89.78148,8280,1456,-14640,544,-856,126,1,1
89.83132,7956,1428,-14120,560,-842,285,1,1
89.83132,7980,1280,-14212,576,51,-184,1,1
89.86455,8068,1264,-14488,576,130,38,1,1
89.89778,8068,1244,-14444,560,-121,328,1,1
89.93101,8060,1380,-14352,576,-556,-128,1,1
89.98084,8136,1504,-14244,544,-319,-146,1,1
90.01407,8192,1356,-14340,544,94,216,1,1
90.01407,8052,1224,-14288,528,-431,-174,1,1
90.04729,8032,1436,-14624,528,-754,-269,1,1
90.09714,8120,1448,-14568,544,-702,57,1,1
90.13036,7908,1468,-14156,544,-453,518,1,1
90.16359,8028,1580,-13912,576,404,0,1,1
90.16359,7956,1192,-14180,576,1197,57,1,1
90.23004,8224,1028,-14484,544,1000,-55,1,1
90.23004,8112,1188,-14500,544,-517,-171,1,1
90.27988,8048,1312,-14360,544,-1642,-361,1,1
90.31311,8112,1372,-14320,576,-499,-45,1,1
90.34634,7952,1292,-14256,560,304,162,1,1
90.34634,8016,1260,-14236,528,93,-230,1,1
90.39617,8112,1152,-14464,528,-608,-661,1,1
90.41279,7932,1428,-14436,560,-554,-693,1,1
90.46262,7900,1196,-14228,528,-398,-12,1,1
90.47923,8064,1488,-14464,544,297,238,1,1
90.52908,7928,1256,-14188,560,178,-93,1,1
90.54568,8032,1160,-14376,560,149,-407,1,1
90.61214,7836,1068,-14440,528,-53,-87,1,1
90.61214,7784,1196,-14612,528,-119,246,1,1
90.64536,7976,1208,-14416,544,-492,-192,1,1
90.72842,8140,1248,-14768,560,-622,205,1,1
90.72842,8000,1300,-14496,544,-1209,674,1,1
90.79487,7804,1380,-13988,544,-129,423,1,1
90.81148,7940,1060,-14248,544,-122,-390,1,1
90.84471,7932,1356,-14792,576,-669,-209,1,1
90.84471,7896,1508,-14352,560,-588,115,1,1
90.87793,7964,1412,-14244,560,-154,-384,1,1
90.87793,8044,1184,-14404,544,-160,-282,1,1
90.91116,7996,1324,-14640,560,242,-113,1,1
90.94438,7860,1024,-14380,576,-260,23,1,1
91.02745,8036,1196,-14624,560,-762,-319,1,1
91.02745,7832,1556,-14520,560,-256,127,1,1
91.06068,7852,1336,-14348,544,-266,154,1,1
91.06068,7848,1268,-14316,576,-9,-179,1,1
91.11052,7888,1328,-14544,528,14,-18,1,1
91.14375,7880,1300,-14364,560,-257,-107,1,1
91.17697,7820,1200,-14236,528,-643,-356,1,1
91.2102,7856,1284,-14408,560,-607,-367,1,1
91.24343,7872,1336,-14448,560,-136,-90,1,1
91.26004,7880,1140,-14500,592,-13,-64,1,1
91.29327,7836,1208,-14612,544,-260,-165,1,1
91.32649,7880,1352,-14488,576,-510,-180,1,1
91.35972,7892,1172,-14676,528,-609,-143,1,1
91.39338,7888,1292,-14180,576,-66,-179,1,1
91.44321,7792,1224,-14480,560,150,-131,1,1
91.44321,8004,1220,-14612,576,159,-112,1,1
91.47636,7952,1128,-14488,560,-110,-338,1,1
91.5096,7812,1172,-14516,576,-546,-180,1,1
91.54283,7688,1192,-14512,512,-282,-208,1,1
91.59268,7876,1116,-14528,560,-207,225,1,1
91.62592,7892,1296,-14504,544,-617,494,1,1
91.62592,7760,1108,-14156,576,-515,130,1,1
91.67578,7808,1152,-14240,544,202,-614,1,1
91.70901,7816,1296,-14688,576,546,-302,1,1
91.74225,7896,1084,-14712,576,-44,-9,1,1
91.74225,7668,1140,-14252,544,-275,417,1,1
91.77548,7740,1192,-14220,544,-449,-147,1,1
91.85857,7876,1148,-14412,560,-966,-429,1,1
91.89182,7688,1284,-14480,592,74,-185,1,0
91.89182,7788,1112,-14700,576,132,44,1,0
91.92506,7840,1196,-14524,576,137,288,1,0
91.9583,7724,1228,-14496,576,-271,67,1,0
91.97492,7752,1124,-14288,592,-846,-211,1,0
91.99155,7836,1188,-14388,576,-682,-368,1,0
92.0414,7828,1312,-14536,576,245,45,1,0
92.07464,7788,1084,-14228,560,364,244,1,0
92.07464,7864,1144,-14496,560,326,-211,1,0
92.15774,7744,996,-14524,576,-100,-146,1,0
92.15774,7812,992,-14568,528,88,-130,1,0
92.19097,7728,872,-14740,560,-1228,-18,1,0
92.22421,7588,1228,-14172,528,-1033,-220,1,0
92.25745,7688,1228,-14360,544,-377,-529,1,0
92.30731,7672,1120,-14616,576,-85,-253,1,0
92.30731,7756,1152,-14596,576,129,-93,1,0
92.37379,7652,1232,-14668,544,-226,-76,1,0
92.37379,7676,1224,-14452,544,-38,-270,1,0
92.40703,7712,1076,-14636,544,20,-449,1,0
92.45689,7544,1032,-14528,560,-421,-395,1,0
92.49012,7604,1044,-14548,576,-658,129,1,0
92.49012,7820,1296,-14488,560,174,107,1,0
92.52337,7612,1252,-14632,512,-240,23,1,0
92.60645,7324,1128,-14132,560,-738,-234,1,0
92.60645,7452,1192,-14384,544,149,-1074,1,0
92.63969,7476,1144,-14892,544,360,-640,1,0
92.63969,7380,984,-14400,592,387,-105,1,0
92.70615,7636,1032,-14584,544,-358,-915,1,0
92.70615,7528,1076,-14684,576,-876,-1272,1,0
92.75602,7388,1108,-14864,544,-554,-702,1,0
92.78925,7208,1100,-14832,528,763,-108,1,0
92.82249,7352,816,-14860,528,712,-201,1,0
92.82249,7256,948,-14880,560,-31,-519,1,0
92.85574,7200,1076,-14640,560,-590,147,1,0
92.90559,7304,1064,-14792,592,-637,-628,1,0
92.93882,7336,944,-14936,560,-218,-353,1,0
92.97207,7332,1092,-14876,560,-412,-470,1,0
93.00531,7080,988,-14840,544,-532,-317,1,0
93.02193,7236,1132,-14540,560,59,-712,1,0
93.05516,7004,936,-14784,560,316,-544,1,0
93.08839,7044,900,-14700,576,526,-337,1,0
93.12163,7168,852,-14884,512,-375,-715,1,0
93.12163,7184,796,-14788,576,-865,-505,1,0
93.17148,6980,1116,-14880,592,-112,-277,1,0
93.23795,7124,884,-14832,576,38,-594,1,0
93.27119,7152,1008,-14924,528,-239,-498,1,0
93.27119,6924,908,-15012,544,-682,-503,1,0
93.30443,6716,988,-14984,624,-494,-302,1,0
93.35427,6856,924,-14844,576,115,-186,1,0
93.35427,6840,884,-14948,560,347,-200,1,0
93.40414,6832,832,-15220,528,-263,-264,1,0
93.42076,7008,968,-15124,544,-829,243,1,0
93.47061,6800,1132,-14808,560,-749,30,1,0
93.50385,6712,884,-14564,576,-245,-467,1,0
93.53709,6804,952,-14988,560,57,-843,1,0
93.53709,6816,872,-14980,576,94,-470,1,0
93.57033,6704,916,-14984,576,-66,-169,1,0
93.62019,6732,1040,-15108,560,-65,-603,1,0
93.68666,6652,800,-14816,528,-254,-125,1,0
93.70329,6880,984,-14988,592,413,-308,1,0
93.7199,6752,796,-15284,592,116,-599,1,0
93.7199,6600,736,-15332,560,-232,-295,1,0
93.76975,6740,1016,-15272,560,-105,-96,1,0
93.80299,6580,752,-14888,592,-280,-252,1,0
93.83623,6488,792,-14916,576,-129,-169,1,0
93.86946,6680,788,-15024,560,80,-139,1,0
93.90269,6720,664,-15136,560,-169,-331,1,0
93.91932,6772,824,-15092,560,-496,-403,1,0
93.9858,6592,724,-15124,592,-386,-469,1,0
93.9858,6532,768,-15088,560,-22,-125,1,0
94.01904,6508,688,-15140,576,-119,-106,1,0
94.06889,6432,756,-15156,576,-675,-140,1,0
94.10213,6636,844,-15116,576,-740,-282,1,0
94.10213,6548,804,-15012,560,-275,-364,1,0
94.16839,6516,932,-15084,560,-103,-453,1,0
94.18522,6596,784,-15192,560,21,-275,1,0
94.21846,6420,784,-15128,576,-72,-287,1,0
94.21846,6308,648,-15132,528,-338,-333,1,0
94.25169,6308,696,-15092,544,-266,-382,1,0
94.31817,6352,764,-15140,560,-144,-307,1,0
94.33479,6360,836,-15424,528,-134,-317,0,0
94.36803,6460,804,-15324,560,-340,34,0,0
94.40127,6420,792,-14940,592,-697,-161,0,0
94.4345,6260,744,-14772,544,-268,-360,0,0
94.4345,6280,752,-15176,592,409,-884,0,0
94.5176,6384,748,-15516,528,558,461,0,0
94.5176,6448,464,-15484,560,196,-441,0,0
94.53423,6332,640,-15212,560,-798,-414,0,0
94.53423,6324,748,-15220,560,-1045,-278,0,0
94.61732,6340,704,-15228,544,66,-643,0,0
94.63394,6248,704,-15380,592,126,-178,0,0
94.66718,6248,580,-15600,576,-840,-104,0,0
94.70042,6224,604,-15132,592,-620,426,0,0
94.73366,6120,764,-15056,560,-145,-367,0,0
94.75027,6044,540,-15264,544,-47,-707,0,0
94.7835,6196,728,-15508,576,-504,16,0,0
94.84998,6116,708,-15040,592,-682,-248,0,0
94.84998,6196,616,-15228,560,-228,-622,0,0
94.88322,5976,760,-15284,576,-148,16,0,0
94.93308,6204,748,-15216,560,-454,-220,0,0
94.96632,6036,732,-15380,560,-546,102,0,0
94.96632,6276,772,-15232,560,-136,45,0,0
94.98294,6056,636,-15232,576,-499,-410,0,0
95.03281,6072,764,-15240,576,-691,-212,0,0
95.08266,6020,716,-15432,576,-573,57,0,0
95.08266,6076,784,-15244,576,-275,-219,0,0
95.14913,5964,868,-15220,576,-188,-440,0,0
95.18238,6072,696,-15352,528,-173,-157,0,0
95.199,5988,796,-15236,544,194,-227,0,0
95.23223,6056,708,-15400,560,259,-182,0,0
95.26547,5828,700,-15480,592,-346,-265,0,0
95.29867,5732,676,-15460,544,-213,538,0,0
95.29867,6456,668,-15504,544,-749,-109,0,0
95.33195,6024,680,-14948,560,-250,-559,0,0
95.36519,5924,704,-15388,576,-367,-664,0,0
95.44828,5844,632,-15600,560,-474,-438,0,0
95.44828,5792,592,-15592,544,63,-286,0,0
95.4649,5860,676,-15372,576,-133,-269,0,0
95.53137,5764,764,-15288,528,-342,-203,0,0
95.53137,5828,656,-15456,560,132,-234,0,0
95.59784,5796,508,-15588,560,15,-137,0,0
95.59784,5884,692,-15732,544,-608,-70,0,0
95.63108,5840,676,-15536,576,-677,74,0,0
95.63108,5804,628,-15208,560,-197,-255,0,0
95.71418,5812,700,-15316,560,213,-394,0,0
95.71418,5780,732,-15520,560,-383,-183,0,0
95.79728,5748,532,-15460,544,-381,-232,0,0
95.79728,5720,600,-15356,576,-22,-194,0,0
95.83051,5824,668,-15360,528,-161,-189,0,0
95.84712,5768,700,-15432,592,-249,-184,0,0
95.86375,5696,580,-15468,576,24,-135,0,0
95.93022,5832,552,-15596,544,-32,-102,0,0
95.93022,5728,556,-15544,560,-293,-43,0,0
95.96346,5672,664,-15380,560,-4,-75,0,0
