Time,Ax,Ay,Az,Gx,Gy,Gz,Breathing,Ground Truth
8.579633,0,0,0,0,0,0,0,0
8.579633,3743.264,862.4966,-9059.348,401.5738,-47.94602,54.08117,0,0
8.795652,5490.968,1019.823,-13968.37,368.0544,-527.4152,-546.8859,0,0
8.795652,6449.952,1106.35,-16392.56,353.7012,-215.4902,-657.0327,0,0
8.795652,6912.005,833.4507,-17364.25,348.9138,-6.652665,-723.186,0,0
8.845501,6957.349,680.8628,-17824,340.0932,74.02471,-549.5355,0,0
8.845501,6930.145,626.8423,-17826.2,335.6008,-242.6369,-351.9224,0,0
8.845501,6811.328,611.1862,-17857.51,333.2621,-177.4542,-541.4821,0,0
8.845501,6735.779,774.2747,-17919.84,337.8167,-275.1314,-451.2078,0,0
8.87874,6679.498,755.6931,-17946.17,330.3728,-143.1206,-317.1163,0,0
8.87874,6622.971,791.4235,-17944.95,340.2298,-381.3688,-273.3683,0,0
8.87874,6550.816,833.4233,-17943.48,337.9295,-380.2151,-187.0426,0,0
8.87874,6495.888,874.1075,-17893.23,331.8335,-649.3437,-131.9365,0,0
8.911978,6609.263,797.9991,-17843.73,331.7434,-559.4767,83.78985,0,0
8.97844,6705.965,261.3157,-17725.64,331.7995,-295.459,305.3675,0,0
8.97844,6742.074,126.2688,-17710.61,336.2053,-30.52806,354.9143,0,0
9.011678,6754.994,235.1155,-17594.4,331.4067,-228.5157,309.0202,0,0
9.028295,6724.725,397.1721,-17458.21,332.1407,-319.2626,103.5865,0,0
9.06153,6692.918,511.0249,-17479.25,328.717,-457.9196,-12.1956,0,0
9.111369,6672.554,583.9641,-17352.7,339.1993,-575.2551,-6.530177,0,0
9.16122,6624.525,672.3927,-17126.12,347.5802,-646.2498,-58.32822,0,0
9.16122,6578.335,821.9367,-17023.09,354.2854,-660.9203,-106.9216,0,0
9.177843,6507.875,1007.673,-16951.33,355.2453,-606.129,-89.85261,0,0
9.244295,6463.704,1064.834,-16784.23,360.581,-445.443,3.280391,0,0
9.244295,6510.554,1038.023,-16676.89,355.9416,-335.7519,100.425,0,0
9.244295,6526.616,924.4818,-16543.07,361.4271,-236.8594,88.51215,0,0
9.29415,6516.149,822.7396,-16469.86,356.8425,-285.2229,-1.470663,0,0
9.327308,6458.011,714.7944,-16449.01,357.9094,-319.3248,-42.41485,0,0
9.343999,6427.376,646.9226,-16413.71,358.8369,-271.8088,9.598165,0,0
9.377233,6442.618,560.9366,-16346.2,355.2022,-320.1979,31.06425,0,0
9.377233,6435.403,506.8423,-16218.42,356.9696,-451.4672,-10.01026,0,0
9.427087,6416.85,486.0916,-16183.25,358.4156,-477.3774,-47.16955,0,0
9.427087,6388.797,474.2044,-16154.17,350.7365,-377.2787,-95.66896,0,0
9.476937,6414.713,480.168,-16132.63,344.9595,-421.0447,-195.6814,0,0
9.476937,6386.768,573.9618,-16066.51,345.0767,-329.3892,-189.202,0,0
9.526795,6349.98,692.6279,-15991.31,349.6978,-212.9865,-156.6574,0,0
9.526795,6296.713,828.9346,-15905.4,348.891,-151.5659,-275.3575,0,0
9.609871,6241.079,889.8409,-15850.69,357.2144,-74.79576,-372.834,0,0
9.609871,6222.664,901.7457,-15834.82,345.9277,-56.76076,-378.8409,0,0
9.659731,6218.529,876.12,-15845.8,346.2257,-148.7908,-396.2294,0,0
9.692886,6123.569,829.5881,-15812.36,342.1003,-263.9619,-384.6803,0,0
9.692886,6076.798,747.2368,-15902.59,334.5926,-242.3432,-246.0951,0,0
9.742804,6101.477,680.8596,-15749.83,337.8001,-296.3012,-246.2473,0,0
9.742804,6034.679,622.442,-15664.23,340.3385,-358.9964,-449.3135,0,0
9.792652,5992.234,581.3275,-15694.8,342.3539,-161.2714,-425.6724,0,0
9.792652,5966.394,535.8195,-15764.68,348.3912,-55.14225,-355.373,0,0
9.825888,5934.558,535.7793,-15749.51,344.1965,-167.5688,-389.6917,0,0
9.825888,5918.202,564.9894,-15690.57,345.4684,-129.6625,-402.9729,0,0
9.875746,5897.167,551.1401,-15629.49,355.3515,23.54539,-444.1804,0,0
9.92559,5874.859,546.4321,-15654.65,367.3708,-15.59915,-492.5779,0,0
9.92559,5854.989,550.9304,-15676.19,367.7018,-81.42623,-388.2559,0,0
9.958823,5808.26,555.8008,-15668.48,372.3771,-48.69027,-221.2915,0,0
9.958823,5795.389,550.9565,-15688.44,371.5056,-155.4686,-221.9762,0,0
10.00867,5758.641,534.2378,-15654.36,366.39,-305.1019,-211.1628,0,0
10.00867,5729.194,525.0681,-15585.79,366.9006,-198.8843,-91.3132,0,0
10.05852,5720.928,530.5457,-15596.36,367.2867,-223.0078,-46.39765,0,0
10.05852,5692.35,519.5131,-15606.7,358.7144,-226.1279,-59.22396,0,0
10.09175,5719.189,539.0533,-15641.33,361.0283,-228.6742,-87.12949,0,0
10.10837,5737.442,547.5987,-15598.22,358.3777,-203.0869,-123.7253,0,0
10.1416,5713.631,573.1715,-15663.08,360.794,-236.0638,-131.4233,0,0
10.19145,5749.622,534.1643,-15701.99,362.6522,-397.1699,-53.54498,0,0
10.19145,5747.129,564.329,-15633.53,355.2159,-376.288,-36.88461,0,0
10.2413,5736.231,591.9849,-15568.43,353.9739,-56.61243,-3.975543,0,0
10.2413,5744.409,587.7363,-15611.37,353.0454,-32.09523,11.68221,0,0
10.29115,5722.868,575.6825,-15588.59,352.3579,-252.4507,31.00988,0,0
10.29115,5673.088,604.2054,-15593.14,360.7178,-278.1199,36.50776,0,0
10.32439,5710.373,616.0894,-15651.93,362.6903,-291.7569,113.4052,0,0
10.32439,5759.948,612.9885,-15557.2,355.3359,-375.0908,68.1192,0,0
10.37424,5752.348,582.9127,-15451.56,345.2889,-304.723,3.640986,0,0
10.37424,5743.092,535.5773,-15559.43,350.928,-215.4513,-30.76541,0,0
10.50718,5717.087,530.5256,-15550.3,359.6999,-205.8155,15.00272,0,0
10.50718,5694.942,511.3248,-15528.09,366.4172,-246.6552,-8.383181,0,0
10.55704,5689.098,521.2067,-15483.78,367.1142,-175.1066,11.45276,0,0
10.55704,5697.965,500.1473,-15469.21,372.063,-147.8437,-24.55393,0,0
10.60689,5722.502,479.8082,-15498.54,371.3942,-170.8894,-72.75575,0,0
10.60689,5717.99,462.2723,-15481.68,366.427,-134.9055,-64.25874,0,0
10.64012,5718.943,454.665,-15521.46,367.0442,-122.2098,-41.44694,0,0
10.64012,5709.679,451.3391,-15510.38,367.5052,-181.3716,-11.32698,0,0
10.68998,5701.476,470.1163,-15490.33,372.2773,-225.057,1.612057,0,0
10.72321,5685.243,464.7688,-15442.44,371.4774,-223.2748,17.71369,0,0
10.73983,5680.625,450.9202,-15427.65,366.4142,-260.6317,-13.64282,0,0
10.77305,5672.721,447.2003,-15414.99,371.3934,-243.6782,-18.10705,0,0
10.77305,5670.072,457.8784,-15415.08,370.7568,-230.6074,-23.01109,0,0
10.88936,5684.742,426.3678,-15430.48,370.2539,-243.8095,-32.11194,0,0
10.88936,5708.202,439.0563,-15463.12,365.4244,-252.1747,-25.56729,0,0
10.9226,5706.208,430.153,-15471.23,357.2941,-200.046,32.54877,0,0
10.9226,5701.347,420.2354,-15498.21,359.9495,-216.6613,110.909,0,0
10.95584,5695.411,423.9539,-15521.88,366.4248,-232.6978,138.404,0,0
10.97246,5690.881,400.4261,-15520.81,371.378,-250.746,139.0933,0,0
11.00569,5704.055,399.2844,-15517.43,375.154,-271.6792,174.3929,0,0
11.00569,5691.979,416.38,-15507.89,373.5895,-236.0627,216.4684,0,0
11.03892,5711.557,416.3669,-15437.17,372.372,-225.3684,244.5483,0,0
11.07216,5743.139,440.9086,-15462.7,380.2868,-235.7232,227.2561,0,0
11.08878,5733.987,442.0869,-15458.83,373.02,-252.7549,265.305,0,0
11.10539,5740.201,417.6122,-15407.01,363.0102,-260.4593,259.5338,0,0
11.15524,5727.151,427.8301,-15419.39,368.6497,-347.6933,180.097,0,0
11.15524,5759.208,435.7761,-15453.23,364.1017,-369.0539,174.3624,0,0
11.22172,5814.652,408.7226,-15347.2,369.489,-436.3199,115.1419,0,0
11.23833,5826.948,434.691,-15240.69,369.1769,-359.4065,-50.79114,0,0
11.25495,5818.377,412.5634,-15348.96,360.0706,-269.7909,-91.42731,0,0
11.27156,5777.246,392.4298,-15379.92,366.4088,-257.6395,-116.9134,0,0
11.3048,5751.175,415.9601,-15383.72,366.8316,-276.0297,-101.6792,0,0
11.3048,5734.488,436.3006,-15388.88,376.0179,-165.1615,-45.35421,0,0
11.33803,5836.917,438.6349,-15616.62,369.7362,-12.91559,24.27884,0,0
11.35465,5863.032,416.0954,-15664.18,364.9207,10.58589,71.24525,0,0
11.37127,5818.478,377.8847,-15346.59,365.6708,-131.8149,340.5833,0,0
11.4045,5912.694,374.2878,-15168.95,375.1115,28.39968,320.3703,0,0
11.42112,5926.841,349.5574,-15224.07,369.0278,336.8721,-13.68692,0,0
11.45435,5960.537,279.8909,-15447.27,368.7976,76.03364,-244.6352,0,0
11.48758,5964.832,294.505,-15488.43,364.1876,-376.5918,-122.4674,0,0
11.55405,5926.688,286.0798,-15411.16,365.0976,-492.5098,45.41854,0,0
11.57067,5837.333,254.4763,-15380.77,365.8003,-646.1495,139.0479,0,0
11.63714,5745.553,259.4647,-15312.14,366.3423,-773.2363,134.0554,0,0
11.63714,5664.326,330.1035,-15326.26,366.7599,-640.4639,151.0612,0,0
11.68699,5632.354,409.8343,-15448.02,375.9433,-388.3154,232.5184,0,0
11.68699,5713.485,539.5328,-15471.33,374.092,-318.4861,165.6798,0,0
11.72023,5847.772,654.0106,-15374.89,372.6595,-325.5713,-99.27296,0,0
11.75346,6002.491,653.555,-15157.09,375.983,-228.137,-251.343,0,0
11.75346,6004.111,643.7839,-15016.37,374.0786,134.6473,-97.01785,0,0
11.7867,5956.105,525.0161,-15135.49,372.6078,603.6522,-115.3364,0,0
11.81994,5872.459,353.0111,-15313.65,371.4732,643.0628,-202.6774,0,0
11.86979,5825.995,163.9259,-15434.65,379.4618,198.4621,-490.019,0,0
11.90302,5829.167,49.71586,-15432.93,376.6923,-122.0478,-582.5508,0,0
11.93626,5808.301,-31.29991,-15459.12,365.6932,-69.50471,-536.8425,0,0
11.98611,5740.28,-42.44415,-15653.97,357.2823,-190.9014,-238.4066,0,0
12.01935,5721.611,19.8211,-15631.87,359.735,-484.2356,-120.8395,0,0
12.01935,5729.689,174.6493,-15376.17,366.0672,-524.6774,-143.7257,0,0
12.08581,5730.521,311.3156,-15205.91,362.0598,-165.3785,-154.4639,0,0
12.08581,5741.299,337.35,-15288.68,363.4383,227.1319,-218.7506,0,0
12.11905,5709.809,245.3756,-15449.77,368.9366,66.69781,-308.109,0,0
12.15228,5638.266,131.9459,-15550.79,373.1445,-177.1464,-272.7313,0,0
12.15228,5594.927,79.89265,-15575.67,367.4921,-408.918,-221.9945,0,0
12.20213,5604.285,56.10065,-15494.58,367.5973,-553.9072,-105.0796,0,0
12.23537,5645.083,89.42347,-15434.48,367.6796,-400.6068,114.837,0,0
12.2686,5637.828,166.3674,-15420.52,363.3128,-238.1151,285.7043,0,0
12.2686,5623.691,234.4061,-15435.29,364.4122,-232.4022,302.8748,0,0
12.31845,5614.274,294.3424,-15437.67,374.1248,-240.4041,343.3403,0,0
12.35168,5632.848,333.526,-15369.63,368.253,-267.4788,397.4443,0,0
12.40153,5653.96,326.8191,-15346.44,363.7567,-304.6674,414.5582,0,0
12.41815,5731.235,335.9574,-15429.64,355.8931,-361.4297,375.3946,0,0
12.468,5778.205,307.3626,-15488.86,349.9005,-477.0934,484.3867,0,0
12.468,5824.015,272.1075,-15467.54,354.2155,-587.1975,583.3676,0,0
12.50123,5866.621,217.4388,-15421.17,357.5481,-746.2692,562.6204,0,0
12.53447,5915.545,196.7772,-15370.15,355.6878,-723.7126,527.587,0,0
12.5677,5947.054,177.8237,-15419.81,358.717,-694.0318,531.8899,0,0
12.5677,5998.41,214.4951,-15436.76,352.188,-729.6478,521.2148,0,0
12.61755,6023.878,294.7663,-15427.54,356.08,-726.6038,505.5196,0,0
12.65078,6072.699,379.4211,-15416.01,359.0779,-622.2882,533.9788,0,0
12.70063,6093.898,426.2466,-15380.59,356.952,-518.8275,533.6324,0,0
12.71725,6073.994,420.7461,-15365.74,359.7697,-538.9898,478.8723,0,0
12.76709,6096.925,457.191,-15379.97,361.934,-597.8358,400.0686,0,0
12.76709,6154.851,526.793,-15390.93,363.5924,-540.2278,468.969,0,0
12.80033,6197.371,570.6812,-15294.12,364.8595,-548.4306,476.3434,0,0
12.83357,6189.262,559.3566,-15220.27,370.2554,-533.076,404.2157,0,0
12.8668,6219.996,521.3265,-15260.53,369.9377,-491.9827,371.1154,0,0
12.91665,6277.115,515.0361,-15306.07,369.678,-494.1612,410.9213,0,0
12.94988,6305.601,551.9207,-15290.17,369.4644,-414.8178,542.1951,0,0
12.98312,6309.926,584.1331,-15197.33,373.7186,-426.404,604.4574,0,0
12.99974,6382.198,561.7581,-15146.61,372.522,-474.3497,549.7867,0,0
13.03298,6442.119,570.7827,-15170.33,376.0182,-506.8161,433.1685,0,0
13.0662,6441.535,588.3431,-15165.66,374.238,-507.6945,541.1132,0,0
13.09944,6462.257,611.3135,-15171.37,368.4235,-430.9416,637.6962,0,0
13.09944,6531.427,618.4562,-15141.78,359.5347,-464.4318,596.317,0,0
13.13267,6537.879,616.8126,-15137.28,361.6071,-673.9243,538.3381,0,0
13.21575,6518.512,667.1849,-15068.9,367.6353,-700.8534,529.0229,0,0
13.23237,6545.946,719.6249,-15097.96,367.8153,-653.8752,509.9302,0,0
13.24899,6583.724,762.4749,-15071.93,367.9482,-572.8832,625.4907,0,0
13.28222,6598.367,746.9561,-15039.2,376.9076,-468.0022,611.5325,0,0
13.28222,6654.029,809.7864,-15031.3,379.3107,-410.7279,614.7844,0,0
13.33208,6708.896,813.9583,-15041.29,381.1205,-460.3851,617.9382,0,0
13.36531,6899.341,828.6367,-15061.61,378.0423,-620.3173,497.514,0,0
13.39854,6859.759,831.4238,-15075.35,388.9554,-724.1665,460.8561,0,0
13.39854,6872.431,862.8033,-15028.62,379.5384,-609.5347,533.8513,0,0
13.44839,6890.817,845.1389,-14985.53,372.3046,-486.8864,553.5444,0,0
13.48162,6936.87,827.6683,-14984.06,375.6235,-700.1638,465.0892,0,0
13.51486,7009.607,863.5968,-14951.31,378.1524,-836.1451,449.4181,0,0
13.5481,7005.188,894.9378,-14842.58,371.2087,-812.6642,475.3905,0,0
13.58132,6991.632,953.7438,-14782.26,370.323,-673.5519,440.4073,0,0
13.58132,6984.478,972.5463,-14847.72,374.078,-530.7382,344.434,0,0
13.63118,7022.19,969.5776,-14858.63,376.946,-533.3381,286.7331,0,0
13.66441,7025.547,999.8388,-14859.84,379.1286,-590.7726,273.6913,0,0
13.69765,7011.515,1022.277,-14801.51,380.7819,-528.5918,154.7161,0,0
13.73079,6972.077,1029.85,-14739.79,377.5956,-569.6713,-145.6452,0,0
13.78074,6964.295,1047.113,-14754.25,375.1439,-545.4239,-429.6778,0,0
13.81396,6975.277,1040.776,-14810.34,382.1234,-422.195,-549.3923,0,0
13.81396,6977.382,1068.49,-14895.92,374.1519,-390.4694,-569.9774,0,0
13.84721,6953.894,1097.878,-14872.01,376.909,-477.0549,-693.3621,0,0
13.88045,6889.857,1139.593,-14889.5,379.0118,-370.6828,-742.1271,0,0
13.93028,6866.967,1113.143,-14962.99,371.7468,-264.7004,-658.1567,0,0
13.93028,6852.399,1105.505,-15003.84,370.6204,-236.7927,-573.9617,0,0
13.96352,6802.16,1111.22,-14995.23,374.1968,-173.7039,-520.3651,0,0
14.02998,6770.166,1110.562,-14944.33,372.5027,-82.1287,-492.0752,0,0
14.02998,6753.334,1060.748,-14938.72,380.0708,-115.9777,-503.8008,0,0
14.07983,6745.942,1085.334,-14984.42,381.419,-78.72878,-473.0916,0,0
14.11307,6659.39,1085.982,-14997.26,373.5713,-153.2549,-476.775,0,0
14.14631,6603.27,1093.805,-15012.63,371.9955,-226.1793,-554.201,0,0
14.22938,6582.763,1107.126,-15063.12,379.6569,-229.8161,-545.8873,0,0
14.22938,6585.124,1102.494,-15128.2,376.6478,-163.4736,-432.1248,0,0
14.26263,6542.933,1098.55,-15056.98,378.7699,-228.1339,-391.1033,0,0
14.26263,6483.329,1088.519,-14980.16,375.9538,-170.8047,-482.9092,0,0
14.29586,6457.04,1093.811,-15059.88,378.2261,-29.60219,-604.2274,0,0
14.3291,6454.077,1057.667,-15117.47,375.5269,-15.5846,-570.3718,0,0
14.37895,6390.297,1046.397,-15162.42,377.8904,-11.1489,-559.6362,0,0
14.37895,6353.188,1017.654,-15134.44,370.8311,-11.80268,-542.0291,0,0
14.41219,6350.954,985.5793,-15097.25,374.2989,-6.618119,-534.2022,0,0
14.44541,6353.233,983.1623,-15122.9,368.0934,131.8451,-472.9933,0,0
14.47865,6310.182,945.8544,-15236.48,367.7896,111.7326,-390.4785,0,0
14.49527,6255.754,919.5851,-15274.24,367.5731,-59.88759,-349.755,0,0
14.56174,6232.586,925.0899,-15204.03,371.8544,-132.4241,-392.101,0,0
14.59497,6174.651,915.0221,-15198.67,370.7061,-67.69221,-420.4137,0,0
14.61158,6148.903,887.5086,-15260.73,365.4029,-65.55257,-412.1705,0,0
14.64482,6155.567,871.0666,-15286.76,365.7929,-181.3943,-400.067,0,0
14.67805,6128.268,875.3161,-15270.77,370.5401,-183.444,-412.7457,0,0
14.67805,6128.157,856.6133,-15238.17,369.749,-114.143,-382.6214,0,0
14.71128,6144.386,864.6816,-15249.46,373.5812,-61.54859,-368.5507,0,0
14.74452,6130.947,833.3948,-15250.04,376.5128,2.511114,-401.4326,0,0
14.79436,6096.997,797.5167,-15250.17,374.3168,19.82438,-423.3887,0,0
14.81098,6021.904,796.9666,-15269.93,381.494,51.73273,-438.0444,0,0
14.86084,5983.021,747.0112,-15313.54,382.5377,-11.02926,-461.2119,0,0
14.89407,5965.26,711.3943,-15401.93,383.3148,-52.49294,-491.6862,0,0
14.91069,5975.847,689.0331,-15377.06,383.8874,-106.3346,-512.7432,0,0
14.92731,5929.41,674.6327,-15245.64,388.7343,-52.64082,-602.1659,0,0
14.97716,5844.911,655.2557,-15287.75,392.4126,10.15391,-734.0508,0,0
15.01039,5814.505,612.1453,-15411.7,390.758,-86.39186,-772.7079,0,0
15.01039,5779.003,610.7566,-15469.52,380.595,-69.84112,-724.9807,0,0
15.04363,5751.809,577.0311,-15438.93,381.668,51.5515,-610.7182,0,0
15.09346,5716.578,579.5231,-15438.24,378.0486,71.2594,-582.3588,0,0
15.12671,5718.42,547.669,-15449.4,375.2766,-17.38123,-563.3675,0,0
15.15995,5702.055,550.489,-15464.09,382.0225,43.88974,-473.5119,0,0
15.19318,5657.326,521.1036,-15463.76,387.1774,26.22355,-430.7112,0,0
15.2098,5646.318,491.4679,-15480.76,382.24,-19.14395,-386.1012,0,0
15.24303,5615.677,482.7247,-15460.05,387.3128,-60.12,-313.0667,0,0
15.27627,5616.543,509.9036,-15500.27,395.6076,-85.44224,-259.1433,0,0
15.3095,5571.683,492.4803,-15498.46,388.6261,-70.74396,-211.9309,0,0
15.34274,5545.034,477.4743,-15495.51,392.1223,-78.33601,-236.1358,0,0
15.39259,5502.424,478.7257,-15500.59,390.3406,-122.3635,-243.4839,0,0
15.42582,5504.134,451.4025,-15497.42,393.3857,-125.2242,-235.3899,0,0
15.42582,5475.459,453.1948,-15511.22,382.3959,-146.1373,-261.9966,0,0
15.45906,5466.736,448.4425,-15494.82,387.2745,-170.3053,-165.5341,0,0
15.49229,5446.663,429.7988,-15475.28,382.1358,-102.7533,-29.3321,0,0
15.54214,5450.019,423.7985,-15505.47,382.6335,-111.6507,-74.03294,0,0
15.54214,5465.71,414.1709,-15460.69,391.8768,-120.9058,-93.14311,0,0
15.57538,5459.739,400.6528,-15481.59,390.0699,-110.4751,-52.69497,0,0
15.64185,5489.215,375.2975,-15517.3,384.2385,-121.2804,-43.69919,0,0
15.65846,5467.064,361.9589,-15562.06,379.7717,-107.3338,-49.07821,0,0
15.6917,5463.001,326.8047,-15579.31,380.7916,-152.8487,-16.39539,0,0
15.72493,5465.003,329.2824,-15576.6,381.5785,-164.8553,2.735736,0,0
15.72493,5452.774,309.5767,-15526.5,377.7536,-183.033,30.03589,0,0
15.75818,5450.691,306.1355,-15501.19,374.8376,-148.8495,40.02109,0,0
15.79139,5454.129,310.6931,-15562.5,377.0549,-130.3321,34.82331,0,0
15.84126,5475.048,279.2375,-15589.2,392.0589,-120.8132,44.63628,0,0
15.87449,5466.066,254.5955,-15501.83,394.6612,-182.7395,90.04829,0,0
15.89111,5480.711,258.4623,-15492.41,387.7627,-280.6693,114.4542,0,0
15.95757,5486.799,270.823,-15527.19,391.3324,-322.5814,32.19226,0,0
15.95757,5513.993,253.0707,-15668.87,385.1847,-379.1292,73.98711,0,0
15.97418,5533.998,258.8043,-15636.15,384.9057,-512.9666,136.752,0,0
16.02405,5535.14,293.5578,-15429.02,380.2588,-571.6541,62.57691,0,0
16.05728,5524.041,301.6807,-15413.45,376.7098,-393.5209,-17.36831,0,0
16.0739,5486.965,301.5598,-15516.89,378.4405,-259.416,-4.861272,0,0
16.10713,5469.956,301.7569,-15548.35,384.2089,-319.1694,18.59739,0,0
16.14037,5470.55,313.2589,-15544.57,384.1921,-244.7344,43.75261,0,0
16.1736,5504.545,293.4934,-15526,384.177,-189.6023,18.37307,0,0
16.20684,5527.459,280.8393,-15544.92,388.5946,-209.207,7.275575,0,0
16.24007,5514.127,259.2441,-15526.03,391.9646,-203.1791,32.91056,0,0
16.25669,5514.056,262.9649,-15532.53,394.5253,-167.014,31.78584,0,0
16.28993,5515.265,282.7202,-15537.4,396.4612,-230.824,-10.30597,0,0
16.32317,5517.443,299.1807,-15533.27,393.4843,-293.7576,-44.32557,0,0
16.3564,5525.89,299.773,-15511.19,386.7544,-287.7434,-69.02987,0,0
16.40625,5525.814,277.126,-15515.29,386.0302,-235.6082,-62.16884,0,0
16.40625,5536.934,205.7108,-15512.86,385.4753,-214.2061,-22.29337,0,0
16.47272,5626.384,140.3166,-15489.91,389.4826,-109.2091,206.4445,0,0
16.47272,5731.284,-27.78971,-15449.1,383.6798,109.6759,534.9431,0,0
16.50596,5780.196,-98.02963,-15425.72,374.811,305.8633,665.4548,0,0
16.5558,5727.432,0.9480289,-15442.34,385.7715,177.9399,539.7248,0,0
16.58904,5573.701,307.8588,-15492.84,394.1627,-131.5922,330.622,0,0
16.58904,5487.06,479.6465,-15501.59,391.7044,-181.975,203.3683,0,0
16.63889,5509.598,534.2731,-15503.84,385.3768,-185.2988,129.1546,0,0
16.65551,5546.982,557.8002,-15518.82,384.9649,-330.3891,86.88493,0,0
16.70535,5569.048,605.1263,-15461.54,380.2209,-378.4686,49.79531,0,0
16.73859,5580.434,691.6445,-15406.68,381.0335,-447.171,26.17735,0,0
16.77184,5585.831,733.7812,-15296.19,377.2356,-488.8793,66.6552,0,0
16.77184,5543.423,780.6554,-15207.6,378.7783,-445.8796,168.5706,0,0
16.82168,5522.12,808.9397,-15312.12,371.1118,-435.6482,77.72217,0,0
16.88814,5441.691,775.3405,-15390.29,369.705,-641.106,146.0887,0,0
16.90475,5455.756,611.4059,-15404.87,377.5239,-495.2961,399.0705,0,0
16.92138,5591.976,329.2776,-15454.92,387.9553,-368.9521,527.7769,0,0
16.95462,5734.981,2.761516,-15508.72,395.9304,-337.3304,514.257,0,0
17.00446,5914.973,-183.0571,-15460.04,388.7126,-497.4146,344.8421,0,0
17.00446,5963.355,-212.0178,-15283.17,387.6055,-762.3728,198.0349,0,0
17.0377,5916.436,-130.8543,-15253.37,391.1807,-742.5643,-52.94538,0,0
17.08755,5904.161,-85.28407,-15370.59,393.9017,-646.897,-83.4276,0,0
17.12079,5930.667,-172.3812,-15441.65,395.9632,-591.1926,35.02825,0,0
17.15402,6045.557,-262.314,-15349.8,393.0848,-284.324,158.9253,0,0
17.15402,6050.637,-406.3342,-15311.79,390.8635,-88.60799,139.6198,0,0
17.18726,6078.024,-509.5204,-15287.38,384.7202,121.5247,69.98211,0,0
17.22049,6073.732,-545.8315,-15291.15,384.4517,341.9567,89.36936,0,0
17.30395,6049.674,-489.9571,-15337.53,379.8193,547.6573,194.3163,0,0
17.30395,5988.429,-287.2852,-15425.27,389.5813,504.8841,181.4566,0,0
17.33724,5856.799,-48.10537,-15484.64,392.6159,92.32591,26.91948,0,0
17.33724,5704.853,127.5695,-15481.15,386.0616,-113.2003,50.64213,0,0
17.37049,5723.833,106.8473,-15459.47,376.6126,11.75651,109.146,0,0
17.40374,5864.776,-149.4991,-15427.25,378.2634,192.8395,120.7405,0,0
17.45361,6064.42,-443.8492,-15390.36,388.4079,374.6733,299.3927,0,0
17.45361,6162.319,-499.6476,-15366.59,378.4435,491.0604,501.1251,0,0
17.48686,6135.591,-370.5065,-15342.97,379.6934,309.2562,455.8625,0,0
17.52011,5934.895,-111.2133,-15344.98,376.2323,108.4621,352.6313,0,0
17.56999,5744.417,145.1535,-15324.51,378.0341,-53.72265,313.864,0,0
17.60324,5761.636,314.465,-15258.07,370.5663,11.25285,306.2942,0,0
17.63649,5815.975,418.9543,-15298.36,378.1741,-204.4678,90.56241,0,0
17.63649,5897.491,472.4971,-15295.09,375.1491,-416.6345,-99.85707,0,0
17.66974,5940.907,485.8501,-15231.88,372.8517,-469.3959,5.664181,0,0
17.70299,5980.536,475.1041,-15242.54,375.5468,-376.4828,149.4472,0,0
17.75287,5951.825,396.1371,-15284.25,377.626,-451.4666,0.8999983,0,0
17.75287,5925.157,316.133,-15340.75,383.6588,-626.6179,-174.7736,0,0
17.78612,5926.716,279.8764,-15431.69,383.8417,-695.3076,-133.1974,0,0
17.86925,6030.767,143.1853,-15412.53,383.9764,-546.1219,80.39977,0,0
17.86925,6127.754,-5.810256,-15280.31,379.643,-600.8192,107.7836,0,0
17.9025,6146.012,-95.18843,-15276.77,380.7613,-580.5681,25.74868,0,0
17.93575,6152.72,-136.5086,-15298.62,386.0511,-447.362,-19.67734,0,0
17.969,6143.957,-126.5607,-15364.24,390.091,-463.7147,-4.849841,0,0
17.98563,6184.332,-94.03116,-15377.9,388.7337,-484.8983,106.743,0,0
18.01888,6204.66,-31.02465,-15353.96,396.5417,-567.9169,194.1082,0,0
18.05214,6191.9,47.38951,-15323.45,393.625,-525.0184,335.0005,0,0
18.08538,6169.378,158.4488,-15278.01,386.9364,-406.8931,396.0821,0,0
18.11864,6170.487,202.2894,-15339.77,381.8081,-419.8042,470.9923,0,0
18.1685,6214.084,254.39,-15358.28,386.7495,-473.7634,671.5619,0,0
18.1685,6254.687,296.091,-15283.81,386.0956,-424.7165,800.361,0,0
18.20176,6284.068,328.645,-15230.26,390.0217,-448.9809,760.1415,0,0
18.28488,6301.497,331.9886,-15217.23,384.1519,-513.2707,684.0154,0,0
18.28488,6327.492,349.5455,-15224.16,375.2274,-669.2761,515.0114,0,0
18.30151,6311.278,332.5522,-15210.89,381.7099,-848.9085,413.2722,0,0
18.35138,6353.661,361.181,-15136.75,377.8168,-801.1451,436.4268,0,0
18.35138,6385.452,380.3876,-15154.65,374.8504,-959.1429,371.2785,0,0
18.38464,6361.459,335.8637,-15138.8,381.4624,-910.4548,322.6073,0,0
18.4345,6437.755,324.6539,-15141.46,390.9603,-609.2549,316.3116,0,0
18.46776,6498.748,311.3051,-15110.62,393.7828,-452.2569,364.0824,0,0
18.46776,6524.655,279.752,-15121.75,400.3507,-403.8487,369.5005,0,0
18.50101,6593.475,301.9266,-15088.55,409.7723,-330.687,379.8727,0,0
18.56749,6625.246,421.6966,-15108.96,408.065,-367.2406,396.2375,0,0
18.61738,6616.442,578.2581,-15093.92,406.7061,-500.1593,431.5623,0,0
18.61738,6575.541,750.4612,-15083.88,401.1889,-717.6133,382.46,0,0
18.65062,6558.953,832.3611,-15141.92,401.3657,-984.8823,240.3176,0,0
18.68388,6549.988,862.7142,-15048.09,410.335,-1171.435,144.9843,0,0
18.70051,6602.309,794.8868,-14951.19,403.8607,-1027.441,112.0175,0,0
18.71713,6728.056,549.0927,-14990.62,398.8731,-577.6038,278.0747,0,0
18.76699,6867.669,266.27,-15024.63,399.4687,-118.7704,529.9111,0,0
18.81689,6931.214,22.26033,-15022.27,399.9075,217.3555,581.2303,0,0
18.83351,6992.931,-28.61685,-15027.47,400.2262,292.0615,439.5957,0,0
18.83351,6994.463,31.90497,-15021.83,400.4532,164.8614,283.8024,0,0
18.86674,6924.506,253.9701,-14993.48,391.7478,-0.4873202,14.24979,0,0
18.91661,6685.949,663.4152,-15014.25,385.0871,-361.8494,-309.0941,0,0
18.93325,6524.974,1071.342,-15076.99,393.3012,-625.066,-577.3517,0,0
18.98313,6419.38,1291.073,-15116.32,390.7281,-642.4544,-804.5368,0,0
19.033,6328.75,1352.988,-15099.95,388.7638,-615.0626,-853.8933,0,0
19.033,6412.632,1290.714,-15055.37,391.7012,-327.4861,-629.7393,0,0
19.06625,6608.865,1071.586,-14912.86,393.9532,366.872,-435.837,0,0
19.0995,6704.538,831.5774,-14916.13,404.5372,721.3378,-409.1185,0,0
19.13274,6655.426,752.3666,-14920.22,399.3199,521.5214,-516.3591,0,0
19.14939,6415.835,847.4628,-14986.94,404.1736,212.5313,-740.9325,0,0
19.21588,6177.217,956.1815,-15064.87,403.4344,175.5677,-827.7848,0,0
19.21588,6130.439,846.901,-15163.37,402.8468,83.94243,-855.0491,0,0
19.24913,6220.65,548.8516,-15198.73,406.8093,49.60832,-742.562,0,0
19.28239,6373.395,249.9094,-15197.85,400.9537,17.72157,-771.5844,0,0
19.33225,6432.935,127.1249,-15182.54,400.8896,-190.5381,-867.7056,0,0
19.33225,6311.283,163.8386,-15244.86,391.967,-276.3122,-835.3141,0,0
19.36551,6255.018,263.8162,-15336.55,389.5771,-346.1974,-730.7194,0,0
19.432,6238.963,364.3077,-15192.43,392.1942,-349.4803,-735.6755,0,0
19.44864,6169.518,375.1842,-15163.91,389.7758,-183.5211,-795.206,0,0
19.46527,6105.86,338.4431,-15282.68,392.3692,-1.661596,-684.8495,0,0
19.54839,6055.613,280.8185,-15383.23,403.2245,14.14082,-562.1635,0,0
19.56502,5980.265,185.1608,-15416.45,402.6549,-2.776338,-476.9004,0,0
19.63151,5943.438,160.2815,-15475.6,406.6333,94.90434,-477.2952,0,0
19.63151,5884.077,160.8124,-15515.74,405.2231,84.59591,-516.4258,0,0
19.66475,5862.937,190.7271,-15500.27,404.123,59.23654,-492.0799,0,0
19.66475,5848.899,207.5807,-15517.63,398.8326,-23.80606,-437.7607,0,0
19.69801,5815.903,209.9292,-15526.9,403.6411,-6.50077,-325.46,0,0
19.73126,5822.696,175.6569,-15479.03,398.4461,-128.1315,-237.7186,0,0
19.73126,5860.988,172.1122,-15471.75,403.3295,-152.558,-175.0732,0,0
19.78095,5806.934,175.4568,-15423.59,398.1934,-98.06757,-88.56663,0,0
19.81439,5754.262,200.6566,-15396.34,398.692,-107.0819,-91.14699,0,0
19.84764,5704.938,214.8089,-15427.28,399.0727,-182.1449,-126.1696,0,0
19.88089,5721.386,223.7701,-15468.37,399.3623,-213.4377,-75.13353,0,0
19.89752,5728.277,182.1882,-15465.09,404.0127,-254.6311,-116.157,0,0
19.93077,5734.427,160.7016,-15455.57,403.1289,-204.448,-107.0644,0,0
19.96401,5743.271,120.2895,-15440.19,406.8728,-182.1979,-93.93475,0,0
19.99726,5740.816,117.5263,-15428.14,405.2894,-196.0767,-59.16267,0,0
20.03052,5730.784,121.414,-15435.31,408.4942,-173.616,-0.9509414,0,0
20.08039,5733.766,111.5266,-15411.75,410.9272,-220.878,-10.47779,0,0
20.08039,5747.774,91.09113,-15420.15,408.3333,-296.4922,-59.90416,0,0
20.11364,5740.247,75.89741,-15454.09,401.8981,-372.5977,-85.17179,0,0
20.1469,5760.526,89.09982,-15429.98,396.9691,-444.4867,-24.28055,0,0
20.18014,5785.401,82.99897,-15348.21,402.0675,-516.0512,-117.9961,0,0
20.19677,5747.241,110.853,-15334.36,401.5376,-401.3991,-155.9186,0,0
20.23002,5738.428,114.7664,-15434.6,401.1308,-276.5838,-134.6776,0,0
20.29652,5702.232,108.0767,-15398.18,396.3879,-343.4371,-124.3998,0,0
20.32928,5697.194,91.05268,-15394.58,397.1988,-256.9612,-129.7322,0,0
20.34591,5745.909,91.61985,-15395.07,397.8282,-230.2758,-122.6226,0,0
20.37916,5765.846,106.7458,-15436.37,398.3169,-192.1104,-90.48466,0,0
20.4124,5734.877,129.6438,-15427.95,394.2649,-214.7606,-35.09529,0,0
20.42902,5715.947,95.28029,-15400.32,395.6081,-196.125,32.71716,0,0
20.44565,5707.367,69.21087,-15450,401.0782,-164.1988,43.98621,0,0
20.47889,5737.73,42.89377,-15423.62,396.4011,-288.3388,-15.18013,0,0
20.52874,5735.783,46.3441,-15421.03,401.6904,-342.5177,24.7668,0,0
20.56199,5714.623,80.31487,-15412.32,401.3044,-328.0526,62.98129,0,0
20.59523,5733.069,100.9994,-15415.55,401.0052,-318.1292,36.10218,0,0
20.61186,5747.439,103.6952,-15466.7,391.9109,-236.389,50.58837,0,0
20.62848,5730.945,110.3272,-15463.58,393.8289,-177.1336,21.40389,0,0
20.67834,5741.806,94.47007,-15506.44,404.1733,-167.3613,66.88337,0,0
20.71159,5766.926,74.71826,-15457.03,407.6508,-216.5411,142.0235,0,0
20.71159,5768.554,66.42464,-15463.37,397.0004,-150.3795,131.707,0,0
20.74483,5727.811,66.91397,-15445.93,397.7147,-181.614,86.19976,1,0
20.7947,5697.919,48.63695,-15441.35,402.6977,-183.2055,169.2526,1,0
20.82794,5718.494,50.36591,-15427.81,406.5058,-182.584,155.0385,1,0
20.86105,5736.658,41.91779,-15460.6,400.5432,-218.7604,175.2531,1,0
20.89443,5764.001,21.25494,-15420.24,391.5456,-172.241,191.0663,1,0
20.91105,5780.574,27.83442,-15403.73,384.6767,-140.8892,178.8509,1,0
20.94429,5767.809,40.84253,-15387.79,397.1778,-215.3829,167.1105,1,0
20.97753,5762.52,27.71151,-15426.61,393.4602,-351.9023,49.16017,1,0
21.01078,5786.229,22.28262,-15431.93,403.9199,-391.0218,9.988693,1,0
21.09387,5782.229,61.52648,-15324.08,403.0535,-345.7948,-44.64864,1,0
21.09387,5783.611,69.51138,-15305.97,415.6736,-231.9596,-169.4353,1,0
21.1105,5809.05,51.32173,-15474.03,403.1411,-224.8472,-188.1222,1,0
21.1105,5787.487,19.77658,-15507.28,402.3998,-306.3921,-176.2301,1,0
21.21022,5739.96,25.70977,-15452.74,397.3956,-258.1598,-145.408,1,0
21.21022,5777.907,31.5131,-15448.55,402.4332,-194.3209,-107.664,1,0
21.24347,5792.579,21.68543,-15428.65,401.8536,-220.6043,-99.62206,1,0
21.27672,5784.963,6.552109,-15431.11,401.4059,-301.9777,-60.34688,1,0
21.27672,5779.133,20.61823,-15476.17,405.4918,-210.1464,-49.32566,1,0
21.30996,5770.253,35.95083,-15499.46,404.177,-239.6073,13.70128,1,0
21.35982,5735.793,38.91578,-15441.78,407.5931,-275.1812,11.98678,1,0
21.39307,5738.327,80.03461,-15435.25,401.3303,-295.9647,23.02504,1,0
21.42631,5720.429,67.1804,-15421.36,400.9659,-354.6761,-38.72351,1,0
21.42631,5764.47,47.37326,-15478.32,400.6875,-408.5083,-13.69754,1,0
21.45955,5749.476,76.57152,-15445.38,396.0444,-321.6774,72.17158,1,0
21.49279,5791.231,92.26165,-15485.47,388.0703,-379.6711,74.536,1,0
21.54265,5817.623,125.2677,-15427.43,386.4261,-329.9124,66.42061,1,0
21.54265,5847.699,110.5278,-15408.47,389.6312,-284.7444,54.74434,1,0
21.57589,5817.386,72.56512,-15417.29,383.2461,-290.0117,65.02908,1,0
21.64238,5828.432,78.95307,-15386.41,396.119,-237.2301,78.82015,1,0
21.659,5824.596,58.35529,-15375.05,405.9803,-242.3234,68.40883,1,0
21.69225,5820.459,48.16268,-15334.36,404.6494,-233.5544,72.73586,1,0
21.72548,5809.459,70.33096,-15359.92,399.1841,-244.6527,70.89887,1,0
21.75872,5841.978,60.72363,-15394.04,408.2919,-218.5882,95.65121,1,0
21.79196,5839.061,85.52206,-15367.05,410.8118,-210.3779,108.8631,1,0
21.80859,5862.199,84.53748,-15430.69,412.7138,-236.623,106.2946,1,0
21.84183,5837.663,69.35411,-15425.09,409.7085,-282.2572,68.67461,1,0
21.87506,5840.941,67.70815,-15427.43,411.817,-335.702,-11.46968,1,0
21.90831,5833.389,71.99986,-15459.1,404.5437,-345.1522,-79.11243,1,0
21.94156,5854.124,81.93492,-15493.22,403.399,-412.0202,-24.86199,1,0
21.95817,5865.454,101.7064,-15349.67,402.5189,-452.3589,-54.11618,1,0
21.99141,5820.819,105.6999,-15317.48,401.8437,-327.7386,-127.3054,1,0
22.02467,5797.699,80.98936,-15406.06,401.3271,-228.8983,-117.9285,1,0
22.05791,5821.02,39.90217,-15492.74,400.933,-255.2794,-88.57637,1,0
22.05791,5835.529,47.30291,-15437.06,405.065,-256.1665,-54.53944,1,0
22.10776,5827.75,44.17251,-15405.45,408.2212,-177.1513,42.25982,1,0
22.14101,5846.131,39.62911,-15456.61,406.1921,-181.4309,158.6306,1,0
22.20748,5875.638,40.65755,-15464.68,404.6295,-228.4164,355.9088,1,0
22.24074,5900.305,45.94564,-15464.09,407.8594,-234.3084,519.1426,1,0
22.25736,5916.784,38.96964,-15502.32,397.0267,-335.5593,651.2595,1,0
22.29061,5964.63,34.80253,-15504.82,402.0401,-390.2148,776.196,1,0
22.32385,6023.099,74.88901,-15476.64,397.0179,-477.4786,896.2484,1,0
22.32385,6024.221,135.4673,-15400.68,406.4794,-591.4576,927.0662,1,0
22.37372,6045.707,187.222,-15338.17,409.283,-625.6686,874.6313,1,0
22.37372,6139.255,199.9805,-15291.63,411.4138,-724.7731,759.5065,1,0
22.4402,6240.15,216.0995,-15281.81,413.0252,-750.1298,747.9573,1,0
22.4402,6306.584,235.8777,-15258,418.6674,-759.7229,766.5136,1,0
22.47345,6322.151,270.6142,-15220.19,414.0902,-684.7153,783.4916,1,0
22.50669,6379.654,295.6929,-15244.86,406.1321,-704.4063,761.894,1,0
22.55655,6370.589,337.7117,-15254.13,413.3303,-724.5923,791.1871,1,0
22.55655,6423.628,349.4222,-15230.52,414.3917,-671.4799,840.5988,1,0
22.5898,6470.972,389.9939,-15199.5,410.7527,-601.4592,884.5817,1,0
22.62304,6521.655,420.4707,-15170.61,407.9557,-572.4175,922.4233,1,0
22.65629,6594.775,423.2379,-15208.77,405.8106,-596.1671,950.2717,1,0
22.70615,6649.514,440.2662,-15172.96,408.6012,-606.2916,932.7996,1,0
22.7394,6713.382,470.4226,-15116.03,415.1643,-607.3611,948.0293,1,0
22.7394,6788.593,508.3778,-15074.06,415.7382,-620.3448,873.108,1,0
22.77264,6803.704,552.2502,-14997.09,416.1572,-626.9277,826.0482,1,0
22.80589,6880.301,541.8745,-14986.53,407.5952,-681.2321,666.9861,1,0
22.85575,6936.299,558.7123,-15056.71,405.4718,-730.1451,659.9239,1,0
22.889,7010.82,599.7097,-14971.37,408.2833,-763.7594,780.0765,1,0
22.889,7034.076,650.285,-14776,414.8664,-660.4262,797.4023,1,0
22.95548,7065.75,668.235,-14814.73,415.4594,-569.6603,611.3502,1,0
22.97211,7108.32,622.4348,-14918.47,411.4652,-752.6837,486.8931,1,0
23.00536,7129.309,662.0208,-14909.93,412.8316,-846.3611,533.9691,1,0
23.03859,7142.679,741.4506,-14842,409.4373,-654.3014,698.1344,1,0
23.07183,7201.23,775.9102,-14767.49,411.2686,-587.0912,752.9809,1,0
23.08846,7320.911,786.9813,-14706.91,403.8033,-639.1889,492.4738,1,0
23.18817,7312.169,816.7262,-14685.89,406.9625,-757.0379,465.8347,1,0
23.2048,7358.092,861.8561,-14684.08,404.9549,-424.786,567.3554,1,0
23.22141,7459.148,914.2785,-14721.3,403.4269,-315.9028,531.339,1,0
23.22141,7586.766,934.5486,-14755.03,411.1317,-530.3347,419.4491,1,0
23.30451,7568.348,941.2876,-14744.97,412.5933,-795.1473,258.8596,1,0
23.30451,7441.591,938.8148,-14665.92,409.2715,-750.0514,223.079,1,0
23.33776,7447.201,951.5054,-14623.93,415.589,-576.6391,321.9561,1,0
23.33776,7513.242,1004.631,-14599.3,424.8413,-484.8746,214.5819,1,0
23.371,7568.978,1000.017,-14731.97,427.4571,-622.8456,186.3008,1,0
23.42086,7575.784,1015.511,-14806.37,416.1249,-813.6934,227.4682,1,0
23.42086,7524.146,1043.091,-14755.09,403.0044,-810.0027,508.3357,1,0
23.45411,7513.263,1089.881,-14648.65,401.8401,-615.8514,487.6496,1,0
23.48735,7529.249,1123.625,-14613.22,400.9699,-586.54,396.7494,1,0
23.55345,7572.483,1139.599,-14685.37,404.757,-582.1522,361.9757,1,0
23.57046,7621.032,1157.493,-14702.33,398.8062,-648.0917,369.9718,1,0
23.6037,7633.719,1218.966,-14666.98,403.1375,-742.241,376.6169,1,0
23.63694,7656.65,1261.65,-14577.24,402.0365,-685.7853,283.3265,1,0
23.65357,7699.623,1281.041,-14573.44,392.3466,-583.9556,333.9017,1,0
23.67019,7681.466,1300.338,-14454.85,398.2583,-550.3834,376.2323,1,0
23.72006,7685.297,1314.039,-14366.03,402.8065,-451.1691,-11.87905,1,0
23.72006,7598.558,1301.326,-14447.51,393.0049,-384.7282,-67.85906,1,0
23.78654,7607.798,1308.357,-14633.66,385.5322,-284.8043,171.2572,1,0
23.78654,7670.611,1291.77,-14534.99,393.1523,-325.8986,360.9595,1,0
23.83642,7771.012,1297.071,-14488.76,394.5832,-434.1196,351.7144,1,0
23.86965,7831.322,1322.488,-14477.24,391.2701,-517.5645,420.8565,1,0
23.90289,7874.143,1299.039,-14439.09,393.1937,-573.2377,316.9355,1,0
23.90289,7828.204,1306.959,-14417.19,390.2583,-495.6208,97.09396,1,0
23.93613,7816.395,1351.104,-14449.83,392.4706,-506.674,222.4356,1,0
23.96937,7858.498,1383.04,-14415.55,394.1862,-570.355,270.821,1,0
24.01924,7857.639,1416.672,-14375.51,395.5165,-555.9177,116.1335,1,0
24.05248,7778.521,1434.949,-14385.4,414.2723,-440.4369,-139.4068,1,0
24.11896,7803.674,1459.197,-14426.81,410.8759,-423.727,-201.2885,1,0
24.15222,7824.452,1462.525,-14446.81,412.6836,-377.983,-14.8229,1,0
24.15222,7848.516,1489.755,-14427.07,414.0418,-258.3107,207.3059,1,0
24.20208,7873.97,1466.583,-14437.86,419.4853,-383.8951,213.289,1,0
24.20208,7982.447,1444.799,-14439.85,419.183,-397.8299,95.01431,1,0
24.23532,7909.453,1449.649,-14422.89,418.9153,-264.7417,-30.88945,1,0
24.26856,7892.708,1437.251,-14409.16,423.1081,-157.3023,24.862,1,0
24.28518,7889.202,1430.542,-14467.72,426.2768,-269.6851,164.1464,1,0
24.35165,7887.016,1467.008,-14492.84,419.7937,-419.6301,261.2379,1,0
24.3849,7929.084,1532.042,-14536.6,414.8008,-472.7719,350.1559,1,0
24.40153,7959.549,1553.468,-14487.05,415.3936,-546.9318,393.2831,1,0
24.43477,7943.428,1556.997,-14337.38,415.8316,-651.6899,216.5364,1,0
24.46801,7914.975,1576.766,-14285.31,407.2885,-732.2814,-252.1991,1,0
24.50125,7893.798,1635.544,-14341.32,405.1833,-653.7879,-462.057,1,0
24.50125,7830.635,1715.229,-14396.81,408.0125,-488.6006,-21.55163,1,0
24.5345,7850.708,1737.659,-14302.21,405.7501,-261.6009,251.1156,1,0
24.56773,7869.121,1714.032,-14273.46,408.4568,-245.6518,206.5466,1,0
24.6176,7884.018,1647.493,-14328.41,414.9615,-499.5983,145.4585,1,0
24.65084,7884.02,1591.503,-14270.04,419.9275,-613.1017,44.17714,1,0
24.65084,7892.575,1611.333,-14292.3,423.7044,-467.8646,32.55451,1,0
24.70071,7980.791,1621.621,-14392.83,417.7008,-443.3688,-40.57256,1,0
24.71733,7952.562,1642.329,-14406.81,413.0868,-554.5853,-4.989726,1,0
24.76719,7977.066,1668.775,-14333.42,400.6864,-542.0703,-34.17033,1,0
24.76719,7897.897,1715.089,-14346.17,408.941,-413.5293,-212.5927,1,0
24.81705,7933.426,1747.733,-14449.22,415.2651,-429.6544,-151.774,1,0
24.88353,7894.966,1786.482,-14410.67,415.6647,-454.0299,-63.05152,1,0
24.90016,7896.341,1775.567,-14425.52,411.5276,-450.8702,31.0059,1,0
24.91679,7889.452,1797.59,-14387.06,408.3585,-353.5161,111.7334,1,0
24.95003,7866.292,1735.143,-14331.14,405.9381,-288.6765,120.0185,1,0
24.98327,7866.187,1741.14,-14263.08,408.5276,-263.8263,8.566653,1,0
25.01651,7880.416,1719.794,-14271.17,410.5153,-306.1888,-101.7957,1,0
25.03313,7891.192,1754.026,-14286.58,398.7434,-199.3766,-140.449,1,0
25.06638,7940.294,1760.962,-14405.01,407.4824,-179.6439,148.9469,1,0
25.09962,7937.762,1755.869,-14218.74,414.1793,-293.071,193.6245,1,0
25.09962,7921.194,1772.62,-14098.71,414.8652,-394.8829,25.07159,1,0
25.1661,7860.697,1822.696,-14285.55,406.5161,-336.3279,-160.6567,1,0
25.18272,7857.557,1816.216,-14456.53,413.4258,-342.3377,-48.08457,1,0
25.21598,7823.012,1844.02,-14308.07,400.9833,-283.934,208.6811,1,0
25.24922,7915.167,1852.617,-14195.67,404.7718,79.84,113.8306,1,0
25.28243,7943.479,1723.547,-14279.51,412.1154,234.5712,-10.44164,1,0
25.29908,7969.376,1675.514,-14395.97,408.8695,-100.0844,-112.6271,1,0
25.33233,7934.661,1675.25,-14346.58,410.817,-396.4832,-185.7586,1,0
25.36557,7890.19,1715.998,-14267.8,416.7362,-281.4921,-127.0966,1,0
25.39881,7897.078,1692.783,-14294.11,421.2516,-75.56174,-136.3545,1,0
25.4819,7873.486,1705.954,-14326.58,411.3886,-115.9309,-146.1048,1,0
25.4819,7854.309,1697.109,-14317.15,417.1283,-281.8942,-237.6542,1,0
25.49853,7819.727,1701.342,-14312.23,408.2141,-333.9527,-273.3826,1,0
25.51515,7795.585,1702.29,-14307.43,410.2577,-235.5242,-229.4821,1,0
25.5484,7814.937,1701.833,-14320.46,407.3927,-176.0922,-183.7404,1,0
25.58164,7797.745,1703.627,-14341.58,409.6383,-94.30893,-100.1676,1,0
25.63151,7826.829,1672.804,-14356.64,411.3601,-58.73483,-2.801558,1,0
25.63151,7815.938,1655.857,-14450.11,408.2454,-153.5961,107.9333,1,0
25.698,7772.243,1622.985,-14482.65,414.7286,-293.5176,111.7735,1,0
25.698,7772.215,1624.525,-14403.12,419.6827,-393.3715,-36.56995,1,0
25.73124,7801.179,1655.726,-14396.39,414.5923,-359.8411,-179.4865,1,0
25.7811,7790.227,1675.217,-14450.97,423.9802,-337.2723,-191.6199,1,0
25.81433,7774.21,1683.477,-14465.96,422.2762,-247.8318,-77.84815,1,0
25.81433,7763.209,1637.699,-14450.62,420.9474,-319.2766,-50.75031,1,0
25.88083,7779.331,1670.298,-14416.52,411.0478,-485.4881,-178.4347,1,0
25.89745,7764.104,1716.301,-14470.08,416.7663,-529.7302,-249.0225,1,0
25.93068,7750.384,1712.636,-14416.71,429.9986,-412.65,-223.1206,1,0
25.96393,7737.841,1746.287,-14498.73,422.3657,-194.7891,-150.0119,1,0
25.99717,7760.562,1702.088,-14562.37,425.3642,-142.9024,-136.223,1,0
26.03041,7752.612,1716.928,-14599.62,423.2034,-345.3302,10.18159,1,0
26.04703,7733.376,1754.786,-14510.24,417.0987,-319.3558,210.4153,1,0
26.08027,7694.458,1696.081,-14356.26,416.8522,-147.9203,175.0045,1,0
26.11351,7719.204,1646.672,-14419.08,412.2296,-5.930354,70.89513,1,0
26.14675,7762.716,1611.146,-14514.81,408.6985,6.569415,194.7367,1,0
26.16337,7741.827,1615.134,-14522.51,410.4425,-26.62145,234.4449,1,0
26.18,7774.698,1633.849,-14489.39,411.7892,-162.8116,136.0004,1,0
26.22985,7825.384,1631.66,-14459.44,412.8279,-346.4952,-31.9552,1,0
26.26311,7831.982,1653.347,-14463.03,409.1966,-289.1457,-69.92849,1,0
26.29635,7803.705,1655.592,-14421.39,406.4291,-161.4924,-77.24933,1,0
26.3296,7789.784,1610.818,-14377.34,408.7602,-132.3631,-88.23209,1,0
26.34622,7786.89,1607.691,-14338.21,414.9885,-33.60829,40.6283,1,0
26.37946,7796.877,1575.524,-14371.61,410.8919,-2.789055,49.42672,1,0
26.4127,7772.391,1541.131,-14377.36,416.6243,-100.4726,43.82733,1,0
26.44593,7809.083,1490.701,-14399.6,421.0062,-276.3481,-30.38061,1,0
26.4958,7805.012,1490.135,-14356.85,415.4817,-379.0024,-73.29904,1,0
26.52904,7809.623,1498.924,-14410.67,415.6797,-471.3307,-94.37595,1,0
26.52904,7813.117,1570.228,-14393.17,402.5341,-414.5869,-69.88445,1,0
26.56228,7750.389,1558.49,-14372.07,401.3589,-266.5774,-56.26742,1,0
26.61214,7766.719,1523.068,-14404.75,400.4882,-179.2286,-29.968,1,0
26.62877,7762.67,1531.625,-14408.74,404.2824,-62.65308,-114.2219,1,0
26.67863,7748.562,1548.343,-14430.63,402.7753,27.01267,-77.15216,1,0
26.67863,7752.26,1581.23,-14450.67,410.5052,21.38458,-27.3245,1,0
26.71188,7748.529,1507.877,-14432.68,407.5634,30.07776,50.97956,1,0
26.74512,7800.045,1488.498,-14455.42,414.1821,68.30341,-11.66823,1,0
26.79499,7780.738,1477.246,-14532.56,419.2426,-39.30429,-53.30031,1,0
26.81161,7780.367,1471.122,-14552.58,431.9609,-255.5165,-138.5615,1,0
26.8448,7769.014,1476.678,-14563.16,419.4949,-350.7956,-159.2668,1,0
26.86148,7759.25,1496.688,-14519.99,423.2275,-217.8326,-90.07266,1,0
26.89473,7749.617,1462.343,-14517.76,417.1992,-22.33325,-76.5752,1,0
26.92797,7761.15,1394.204,-14500.37,421.4377,-20.64358,-40.67961,1,0
26.97769,7777.781,1359.052,-14499.11,424.6652,-233.527,-181.5896,1,0
26.97769,7751.747,1370.266,-14511.32,427.112,-374.2191,-269.2168,1,0
27.04432,7726.338,1411.392,-14522.74,424.5253,-289.5378,-116.1736,1,0
27.06094,7781.228,1450.928,-14597.8,431.3859,-333.5634,78.68149,1,0
27.12743,7744.587,1440.393,-14543.05,432.1716,-454.1696,118.4168,1,0
27.12743,7695.556,1431.415,-14414.54,428.3058,-470.0215,-86.98755,1,0
27.16067,7706.942,1486.785,-14550.03,416.4583,-382.9499,-231.4343,1,0
27.19392,7695.867,1476.07,-14649.14,420.685,-349.9709,-72.96507,1,0
27.19392,7691.984,1454.658,-14544.04,419.4845,-333.307,19.32267,1,0
27.24331,7701.363,1452.796,-14444.59,414.1314,-198.4694,-91.60861,1,0
27.27656,7715.325,1444.852,-14463.81,418.9054,-171.4993,-218.0091,1,0
27.30975,7718.355,1420.077,-14512.91,422.5592,-233.2737,-114.457,1,0
27.34296,7701.924,1392.437,-14500.59,416.4842,-257.3246,-112.6035,1,0
27.39279,7726.016,1395.891,-14550.93,402.975,-325.5481,-134.0713,1,0
27.39279,7705.742,1425.347,-14528.4,401.5302,-426.0499,-121.5608,1,0
27.42601,7667.051,1440.289,-14478.92,400.4618,-409.7944,-150.0933,1,0
27.45923,7630.963,1431.889,-14495.35,399.6823,-254.3498,-203.8975,1,0
27.54227,7640.147,1453.265,-14499.05,403.5547,-146.1494,-170.8615,1,0
27.54227,7661.805,1423.161,-14552.83,406.5467,-107.8906,-140.9415,1,0
27.57549,7710.673,1398.019,-14585,413.287,-291.3708,-142.5691,1,0
27.60871,7684.98,1391.131,-14537.4,418.4493,-473.8549,-110.1953,1,0
27.60871,7647.676,1421.49,-14420,426.8221,-277.9407,-46.8844,1,0
27.64193,7676.896,1431.544,-14458.81,428.7715,33.01404,7.836565,1,0
27.69176,7681.641,1383.924,-14545.11,434.6621,-86.03098,-106.4362,1,0
27.72497,7662.091,1355.397,-14554.58,439.127,-406.8822,-224.6395,1,0
27.72497,7629.52,1400.261,-14550.61,438.0609,-294.889,-175.5253,1,0
27.7748,7612.529,1387.097,-14530.84,437.1967,23.06096,41.17287,1,0
27.79141,7630.76,1312.907,-14535.58,432.0604,120.4649,108.1593,1,0
27.84124,7640.455,1276.353,-14529.16,423.6676,-79.70304,-63.1483,1,0
27.87445,7629.181,1304.135,-14544.14,417.2342,-251.0178,-189.9364,1,0
27.90805,7607.409,1323.486,-14607.58,421.1791,-237.5215,-149.1186,1,0
27.92466,7626.385,1348.505,-14673.66,415.3359,-254.2637,-123.5376,1,0
27.95788,7607.822,1331.263,-14668.49,415.3057,-311.5713,10.50491,1,0
27.9911,7597.109,1357.026,-14654.21,415.2945,-326.6939,50.30133,1,0
28.02451,7566.943,1370.225,-14689.52,410.8661,-454.0613,109.5242,1,0
28.04115,7590.626,1420.294,-14689.62,416.359,-564.0598,174.0831,1,0
28.05779,7605.621,1459.697,-14623.99,425.0031,-423.4574,233.7371,1,0
28.1077,7581.791,1440.992,-14507.11,422.7455,-253.3648,242.1674,1,0
28.14097,7583.67,1412.186,-14522.98,425.4403,-80.78125,144.9259,0,0
28.17425,7629.594,1355.779,-14616.08,423.0588,-90.87147,37.10896,0,0
28.20753,7644.87,1359.243,-14624.07,416.7967,-310.0237,47.20896,0,0
28.25743,7627.777,1397.455,-14570.22,412.0098,-491.5222,26.55256,0,0
28.25743,7620.282,1428.944,-14530.07,417.2258,-428.2985,-31.99843,0,0
28.2907,7631.229,1428.621,-14487.22,416.7939,-169.8428,-42.15196,0,0
28.32398,7648.512,1370.71,-14557.6,416.4695,-14.83735,29.91612,0,0
28.35726,7663.957,1317.589,-14573.83,420.6588,-291.6802,-92.79958,0,0
28.39053,7644.723,1349.127,-14612.8,432.7253,-639.5471,-141.6946,0,0
28.44044,7615.601,1429.892,-14550.56,424.2075,-644.935,-28.16519,0,0
28.44044,7552.39,1422.969,-14482.99,422.1065,-372.3402,-79.969,0,0
28.47371,7581.757,1385.483,-14592.06,433.7868,-116.3535,-31.9765,0,0
28.50699,7614.354,1354.598,-14693.22,433.8359,-175.0248,100.6162,0,0
28.5569,7611.672,1337.7,-14665.11,433.8431,-421.2899,36.78273,0,0
28.5569,7630.725,1362.567,-14574.66,429.3886,-588.7565,-158.7297,0,0
28.59017,7617.627,1399.404,-14559.68,430.3925,-455.114,-208.9406,0,0
28.65613,7609.854,1441.992,-14639.08,426.7119,-149.153,-114.5604,0,0
28.65613,7600.635,1396.936,-14664.26,428.3167,-134.6227,-7.757174,0,0
28.67278,7540.476,1373.51,-14642.34,420.6714,-290.6313,-14.67268,0,0
28.73927,7494.626,1364.484,-14601.03,423.687,-345.5728,-141.876,0,0
28.77253,7499.71,1395.308,-14604.81,425.9958,-243.2343,-206.0623,0,0
28.77253,7523.826,1377.913,-14685.19,418.8952,-191.5958,-145.974,0,0
28.80579,7540.283,1382.352,-14630.19,417.9009,-309.8912,-44.89918,0,0
28.85568,7566.335,1392.419,-14568.04,417.1527,-366.0821,-27.07505,0,0
28.88893,7579.724,1361.35,-14521.62,421.0251,-291.5034,-68.05147,0,0
28.88893,7534.636,1326.553,-14557.13,415.132,-247.98,-91.0823,0,0
28.95544,7533.5,1354.34,-14603.24,415.0687,-206.4592,-103.366,0,0
28.97207,7538.319,1355.751,-14649.57,415.0373,-204.2295,-49.79063,0,0
29.00512,7533.275,1389.025,-14588.52,410.5983,-248.1417,-69.44107,0,0
29.03839,7530.654,1394.546,-14540.67,416.0876,-204.0259,-116.0325,0,0
29.07146,7546.505,1369.943,-14612.72,420.3021,-212.8044,-101.1658,0,0
29.10478,7600.826,1376.615,-14673.36,423.5298,-315.7813,93.65302,0,0
29.1214,7622.432,1389.494,-14625.43,421.563,-408.1008,180.4134,0,0
29.15462,7559.119,1374.966,-14532.16,424.4864,-321.1674,53.52751,0,0
29.18785,7542.827,1364.969,-14621.52,426.716,-174.474,-23.08418,0,0
29.22108,7521.586,1350.708,-14645.56,432.8409,-136.9152,54.20526,0,0
29.25431,7524.296,1319.921,-14628.4,433.072,-213.7363,36.1787,0,0
29.30415,7543.114,1311.999,-14591.91,437.6539,-308.1446,-45.35982,0,0
29.30415,7553.167,1357.045,-14555.13,432.2639,-319.9622,-114.9512,0,0
29.33739,7557.588,1372.741,-14531.5,428.1158,-217.5586,-105.7169,0,0
29.37062,7535.527,1347.091,-14573.38,420.4985,-157.0056,-134.4774,0,0
29.42046,7545.307,1344.128,-14618.78,419.1057,-180.4237,-90.63049,0,0
29.45369,7538.45,1353,-14619.14,418.0508,-274.1605,-96.54689,0,0
29.45369,7504.467,1366.478,-14581.68,417.2565,-371.6552,-70.21352,0,0
29.52015,7479.7,1342.46,-14557.46,416.6627,-442.7176,-149.4231,0,0
29.53676,7469.795,1364.011,-14567.8,416.2232,-351.5879,-155.2764,0,0
29.56999,7463.529,1356.147,-14560.27,420.3331,-169.4654,-104.6833,0,0
29.60322,7466.698,1315.809,-14581.16,423.4848,-59.63495,-108.49,0,0
29.65306,7470.426,1301.658,-14590.52,425.895,-112.8615,-189.3968,0,0
29.65306,7440.221,1304.262,-14565.56,423.3006,-179.7279,-330.5375,0,0
29.66967,7375.231,1268.723,-14543.18,425.7433,-125.0307,-426.0862,0,0
29.70291,7366.835,1243.935,-14580.42,427.6061,-9.222319,-724.4338,0,0
29.78597,7327.548,1215.24,-14625.57,429.0207,-51.82409,-827.3333,0,0
29.80259,7279.082,1232.352,-14664.47,434.5207,-62.15662,-749.9517,0,0
29.83582,7254.696,1244.599,-14639.79,434.2742,-123.6173,-825.6033,0,0
29.86905,7232.159,1290.743,-14711.61,429.6297,29.9046,-821.6924,0,0
29.86905,7176.718,1243.077,-14770.76,426.0612,192.315,-743.9347,0,0
29.90228,7150.463,1185.727,-14800.13,418.8946,157.8943,-693.2562,0,0
29.93551,7116.671,1163.184,-14809.99,417.8525,12.49778,-609.7659,0,0
29.96873,7081.578,1135.202,-14855.85,408.2081,-79.00787,-605.5353,0,0
30.01858,7053.285,1141.875,-14879.36,409.7237,-175.538,-717.7087,0,0
30.0518,6978.155,1136.272,-14914.52,419.7788,-222.7799,-698.8813,0,0
30.0518,6941.519,1110.183,-14894.31,418.622,-269.8397,-738.533,0,0
30.08504,6926.636,1110.548,-14931.47,422.1764,-254.8988,-696.6206,0,0
30.13488,6895.156,1111.205,-14939.4,424.8979,-270.3593,-455.3093,0,0
30.20134,6836.588,1136.434,-14838.54,426.9753,-207.7106,-499.2362,0,0
30.20134,6782.842,1117.253,-14804.22,432.986,-190.9359,-782.5162,0,0
30.23457,6759.443,1129.459,-14913.99,424.27,-155.3267,-923.5402,0,0
30.25119,6734.902,1145.71,-15030.82,422.0247,-47.22382,-809.397,0,0
30.26779,6684.003,1117.372,-15060.86,424.7396,106.4389,-679.3945,0,0
30.30103,6663.938,1104.797,-15059.86,422.3834,139.8218,-658.3519,0,0
30.35086,6705.129,1104.308,-15106.03,425.0124,20.96459,-567.6591,0,0
30.3841,6680.065,1068.747,-15167.2,422.5899,-83.1439,-521.0809,0,0
30.3841,6576.58,1016.372,-15202.1,429.5992,-67.404,-520.8612,0,0
30.41733,6548.388,999.9702,-15149.26,426.0886,35.3629,-577.7411,0,0
30.46716,6518.028,987.8648,-15147.95,427.8258,-4.84641,-462.7387,0,0
30.5004,6523.679,985.6993,-15204.98,429.1463,-80.47028,-446.5544,0,0
30.53361,6437.179,950.1355,-15255.62,430.1452,-180.8019,-482.8013,0,0
30.61667,6397.69,893.4902,-15208.24,426.4648,-219.772,-476.2903,0,0
30.61667,6336.615,877.308,-15149.1,423.6422,-219.1533,-353.1347,0,0
30.6333,6318.907,886.5739,-15127.68,417.0522,-222.8572,-238.7164,0,0
30.6333,6323.292,908.6225,-15172.87,416.4556,-155.3762,-276.9153,0,0
30.68315,6327.893,919.3275,-15235.75,420.4484,-175.6395,-379.7802,0,0
30.71637,6270.542,919.0794,-15203.5,423.5135,-252.797,-351.038,0,0
30.73299,6242.263,929.2548,-15187.14,425.8607,-284.4401,-284.4483,0,0
30.76622,6246.215,929.6401,-15176.36,423.2213,-223.2913,-229.1793,0,0
30.83266,6237.103,903.6763,-15272.94,425.6327,-223.363,-196.8105,0,0
30.84929,6211.296,893.0303,-15317.48,423.0433,-190.2824,-135.7725,0,0
30.88251,6217.02,840.9428,-15260.05,425.4936,-120.2736,-36.00127,0,0
30.91573,6198.067,821.4794,-15256.55,431.7968,-54.56388,-204.7702,0,0
30.94895,6167.96,808.1829,-15275.55,427.7419,-175.6392,-232.5194,0,0
30.94895,6181.396,833.9541,-15259.69,429.0601,-210.6726,-240.5473,0,0
31.03203,6153.858,840.8066,-15290.33,421.1961,-142.91,-217.6498,0,0
31.03203,6173.614,799.8998,-15313.31,428.4767,-26.79398,-246.4408,0,0
31.06527,6134.211,796.7232,-15333.72,434.0422,-72.77951,-248.807,0,0
31.0985,6089.437,794.7236,-15271.27,438.2816,-160.7822,-325.0832,0,0
31.13173,6016.234,781.4202,-15280.71,428.2031,-54.19233,-286.6013,0,0
31.13173,6076.478,774.9793,-15354.06,424.912,68.48058,166.4641,0,0
31.18155,6127.915,712.8555,-15275.67,426.8262,38.95623,-59.73451,0,0
31.2148,6107.079,675.7961,-15264.1,428.29,-184.0001,-324.6507,0,0
31.24803,6039.776,676.8193,-15303.74,433.8369,-363.9725,-468.1655,0,0
31.24803,6031.176,684.8102,-15353.7,438.066,-310.1009,-425.6076,0,0
31.29788,6019.864,691.4395,-15378.23,441.2772,-100.6001,-425.4246,0,0
31.3311,5989.839,682.5803,-15368.85,439.2714,-59.10046,-418.6537,0,0
31.36433,5975.424,674.0427,-15374.55,428.8466,-174.8574,-395.237,0,0
31.39756,5957.441,670.1771,-15333.09,429.7263,-238.4754,-433.3661,0,0
31.4308,5854.745,636.6384,-15325.43,425.9663,-257.0398,-362.8925,0,0
31.48064,5935.533,626.9622,-15399.08,427.5251,-278.7412,-201.6884,0,0
31.48064,5890.692,637.7685,-15370.86,433.1525,-285.0831,-374.917,0,0
31.51387,5878.229,627.6475,-15316.81,424.1567,-235.0771,-487.5113,0,0
31.5471,5844.011,618.1193,-15307.37,426.1422,-124.8903,-574.1879,0,0
31.58033,5810.898,612.3669,-15380.87,427.6681,-137.5578,-459.7079,0,0
31.63018,5790.849,625.004,-15450.14,419.9757,-203.5466,-437.9924,0,0
31.66341,5757.537,647.2372,-15458.4,422.9681,-213.5466,-429.7661,0,0
31.69664,5724.072,605.845,-15432.15,416.4087,-81.7861,-367.3684,0,0
31.71325,5729.291,570.0994,-15452.68,424.7064,-19.04815,-308.792,0,0
31.74648,5695.381,577.5141,-15465.79,426.6342,44.15369,-309.7784,0,0
31.76311,5668.102,560.3285,-15506.44,414.8171,41.38848,-362.4547,0,0
31.81294,5632.62,523.2172,-15462.88,427.9536,-22.10153,-318.0401,0,0
31.81294,5611.939,511.9024,-15448,433.5767,78.84729,-203.2665,0,0
31.84618,5584.863,453.8716,-15482.85,433.4337,152.6042,-107.4473,0,0
31.89601,5644.849,427.7574,-15523.57,424.4458,130.8926,66.7074,0,0
31.92925,5641.689,440.5121,-15504.47,426.4324,131.4398,-44.61983,0,0
31.9957,5617.839,405.417,-15486.16,432.386,-37.05146,-67.08228,0,0
31.9957,5591.457,395.773,-15487.34,432.5003,-21.59015,-95.63525,0,0
32.04555,5576.451,405.6056,-15475.78,432.5753,82.90141,-26.83498,0,0
32.04555,5524.728,395.9526,-15442.31,437.0518,164.4818,22.48355,0,0
32.06216,5508.118,376.9113,-15447.54,431.595,151.3534,-29.608,0,0
32.112,5535.002,317.4626,-15514.55,418.5465,36.96516,-173.5889,0,0
32.112,5588.434,293.653,-15572.19,426.3037,-165.183,-206.7091,0,0
32.19508,5429.386,262.8098,-15408.74,423.3849,-181.7357,-87.83488,0,0
32.19508,5504.586,250.9881,-15408.76,425.5917,38.56091,-78.01978,0,0
32.22831,5471.997,224.9163,-15495.17,436.1486,88.49571,-166.3938,0,0
32.26154,5427.814,215.651,-15548.93,435.3489,-56.09744,-213.6792,0,0
32.29477,5437.965,192.6485,-15483.42,439.1503,-30.78455,-195.3197,0,0
32.29477,5430.937,175.7598,-15511.75,433.1729,-0.06606367,-194.3163,0,0
32.34461,5427.35,138.0726,-15487.8,424.1549,-46.42724,-239.2828,0,0
32.37784,5411.966,124.3904,-15525.82,430.5555,25.5561,-178.3712,0,0
32.41107,5447.371,67.04085,-15613.41,431.0213,-27.76221,-153.1344,0,0
32.46091,5462.831,50.57225,-15642.38,426.942,-69.15447,-142.8063,0,0
32.46091,5449.658,49.88814,-15655.24,423.8236,-66.14314,-125.6322,0,0
32.52737,5450.017,73.43041,-15628.05,430.3107,-92.84297,-46.19648,0,0
32.52737,5420.827,73.3255,-15589.12,435.274,-144.7258,-25.61519,0,0
32.5606,5411.155,11.8708,-15596.71,434.6278,-232.9463,-78.9302,0,0
32.59383,5397.589,-13.36469,-15561.26,442.9825,-249.0922,-65.43553,0,0
32.62706,5402.096,-11.95812,-15536.16,431.6226,-273.7362,-21.85188,0,0
32.64367,5421.51,-4.600603,-15515.73,431.7836,-320.0865,-64.71407,0,0
32.6769,5413.494,-13.79355,-15516.65,427.472,-298.7813,-91.94553,0,0
32.71012,5397.767,1.990094,-15520.63,433.0401,-298.8703,-81.37473,0,0
32.74335,5387.229,65.62653,-15554.64,437.2968,-215.3884,-50.73807,0,0
32.79319,5383.991,48.29213,-15555.07,431.6773,-211.0478,-59.91386,0,0
32.85965,5391.867,31.01427,-15558.59,422.941,-221.0782,-72.67493,0,0
32.85965,5412.644,32.62971,-15548.97,433.9953,-203.3274,-53.52105,0,0
32.87627,5423.29,25.4192,-15547.05,433.5885,-218.919,-41.53938,0,0
32.89289,5427.246,29.16962,-15555.46,433.2699,-183.8517,19.76917,0,0
32.94273,5429.38,0.2922536,-15583.95,433.0199,-145.2624,62.76897,0,0
32.94273,5392.438,-6.992637,-15563.51,437.2546,-191.5906,61.75606,0,0
33.00913,5387.688,-5.505268,-15533.34,440.4823,-203.1277,45.07082,0,0
33.04242,5379.889,-27.23862,-15515.75,434.0695,-303.4933,-35.61959,0,0
33.04242,5373.082,-15.7631,-15578.74,429.1541,-378.3112,-46.2958,0,0
33.09225,5411.348,-12.1446,-15571.44,438.6908,-364.1725,72.55474,0,0
33.12548,5417.551,7.584678,-15412.86,441.5454,-380.8546,-7.139482,0,0
33.15871,5398.073,5.24205,-15444.59,443.709,-318.9271,-128.9758,0,0
33.17533,5419.898,-10.68731,-15568.76,440.9084,-257.0809,-72.57545,0,0
33.20855,5411.25,-23.70328,-15581.74,443.1772,-304.0258,-144.3303,0,0
33.24178,5374.85,-25.6112,-15492.93,444.8921,-302.0619,-135.6856,0,0
33.275,5371.564,-15.7027,-15474.86,441.7487,-239.4031,-82.67992,0,0
33.30824,5391.412,2.106006,-15477.74,443.7568,-251.1827,-68.67899,0,0
33.34146,5396.79,-9.542223,-15508.85,440.8429,-191.7067,53.06767,0,0
33.3913,5397.712,-33.75846,-15531.58,438.5996,-178.9039,201.0831,0,0
33.42452,5428.449,-69.76786,-15570,441.3071,-201.8658,249.7896,0,0
33.42452,5416.573,-48.26772,-15556.08,438.9367,-228.8895,196.0658,0,0
33.45776,5427.487,-39.30025,-15595.19,441.547,-341.4891,141.0725,0,0
33.49099,5436.987,-33.31792,-15562.92,434.6715,-390.8432,135.1204,0,0
33.50761,5438.734,-26.32455,-15538.13,429.4122,-395.2706,20.52514,0,0
33.57405,5441.186,-47.38757,-15582.27,434.265,-334.0144,18.00856,0,0
33.57405,5448.603,-54.44288,-15562.76,433.5544,-304.8866,19.89647,0,0
33.59068,5415.492,-28.61137,-15545.53,433.0167,-319.2737,10.75438,0,0
33.65713,5451.131,-29.73878,-15527.88,437.0434,-265.8667,5.931695,0,0
33.69035,5459.561,-9.41712,-15524.35,435.6927,-239.0636,-14.95666,0,0
33.77343,5456.001,-2.638633,-15548.25,439.0904,-227.4345,9.78742,0,0
33.77343,5470.967,-25.08339,-15523.32,437.2532,-186.4611,28.14604,0,0
33.83988,5464.635,-35.51232,-15507.57,431.4126,-157.7319,100.8412,0,0
33.83988,5491.864,-50.0158,-15511.09,435.8143,-102.9882,94.77633,0,0
33.87312,5498.202,-36.59332,-15543.74,439.1849,-137.8394,121.4888,0,0
33.88974,5484.103,-39.49401,-15589.76,441.758,-150.6286,136.4129,0,0
33.92297,5475.444,-73.72552,-15581.65,434.8523,-237.0451,43.14145,0,0
33.92297,5483.161,-72.05054,-15521.05,429.5683,-214.0052,-42.17413,0,0
33.95619,5484.569,-107.1495,-15530.07,425.5385,-278.9214,-213.6942,0,0
33.98942,5498.873,-92.78602,-15640.03,431.34,-359.5164,-141.1903,0,0
34.02265,5486.462,-77.15508,-15526.78,426.9293,-411.7745,-83.38499,0,0
34.05588,5453.631,-57.27858,-15437.89,432.4341,-366.8977,-166.0505,0,0
34.10571,5437.373,-54.14751,-15473.09,427.7919,-246.9444,-254.4473,0,0
34.13895,5429.41,-72.71368,-15597.69,424.2535,-221.2987,-223.8001,0,0
34.2054,5428.923,-80.1588,-15571.07,430.4302,-202.2868,-155.2807,0,0
34.22201,5426.403,-90.15585,-15491.89,439.5985,-166.5165,-98.66319,0,0
34.23863,5459.993,-65.5331,-15486.76,446.604,-117.993,-95.62085,0,0
34.25525,5458.005,-70.9671,-15522.83,443.0753,-163.3889,-97.05746,0,0
34.32169,5423.24,-75.03548,-15530.53,440.353,-178.6561,10.51593,0,0
34.33831,5409.99,-89.13176,-15543.08,438.2557,-184.1017,51.46551,0,0
34.40478,5407.702,-86.50654,-15554.87,441.0741,-267.862,48.51353,0,0
34.40478,5423.776,-69.98313,-15568.28,447.6499,-298.3865,41.87756,0,0
34.438,5442.79,-55.04928,-15586.22,443.7944,-391.3844,0.04553539,0,0
34.438,5445.173,-36.9405,-15616.45,440.8246,-393.2538,-1.326617,0,0
34.47123,5440.354,-38.60132,-15582.92,438.5413,-372.9985,-24.60866,0,0
34.50446,5469.914,-43.20887,-15591.49,436.7894,-394.5846,26.50952,0,0
34.50446,5491.383,-34.5518,-15559.16,435.4488,-288.9263,63.29855,0,0
34.55426,5461.19,-54.53178,-15560.97,438.8575,-265.2944,53.8632,0,0
34.58754,5463.525,-81.98891,-15544.6,437.032,-268.2485,65.56657,0,0
34.62077,5486.331,-76.33436,-15570.85,435.6345,-246.4092,91.49944,0,0
34.654,5473.799,-86.33366,-15532.19,434.5679,-185.6976,42.97622,0,0
34.70383,5486.311,-108.2993,-15561.33,442.6195,-169.0322,75.77026,0,0
34.70383,5480.306,-100.6073,-15531.56,444.3399,-120.4845,116.7518,0,0
34.73707,5488.945,-149.9947,-15506.58,441.209,-119.0814,125.6966,0,0
34.77029,5486.623,-153.2441,-15462.08,434.3719,-136.8682,125.6146,0,0
34.82014,5506.936,-147.7581,-15459.22,433.5762,-131.07,102.8504,0,0
34.82014,5504.655,-106.8057,-15456.12,432.9766,-206.3617,25.6763,0,0
34.85336,5488.41,-108.5966,-15524.84,432.5279,-274.036,14.21524,0,0
34.93642,5500.289,-132.0385,-15491.07,432.1954,-419.9074,25.12581,0,0
34.93642,5480.501,-113.2937,-15352.31,427.5207,-391.5665,-75.64336,0,0
34.95294,5502.989,-148.7078,-15470.26,428.3942,-253.1883,-134.288,0,0
34.98629,5459.198,-162.3668,-15582.85,429.0814,-276.0058,-156.6744,0,0
35.03611,5444.529,-178.1773,-15555.9,434.0546,-342.4343,-152.373,0,0
35.03611,5482.103,-132.4632,-15510.82,429.003,-243.2503,-103.2971,0,0
35.11918,5496.441,-135.0318,-15540.58,434.0124,-168.7206,-118.9461,0,0
35.11918,5501.817,-129.1493,-15568.86,428.9877,-192.729,-88.30486,0,0
35.13581,5459.334,-143.4024,-15583.76,434.0168,-186.8776,-54.70938,0,0
35.18565,5464.503,-151.9954,-15636.02,437.8687,-138.7824,-38.6043,0,0
35.21888,5454.078,-130.7602,-15617.06,445.2413,-181.6908,5.054854,0,0
35.26872,5474.941,-132.1629,-15596.82,433.1366,-263.4229,-23.07217,0,0
35.26872,5473.181,-129.8513,-15588.93,437.1668,-353.9093,-52.36609,0,0
35.30148,5474.044,-109.1951,-15619.34,444.6791,-216.3096,-70.8518,0,0
35.33471,5421.524,-155.4146,-15562.69,450.409,-279.954,3.725585,0,0
35.36795,5453.435,-150.8126,-15549.19,450.3303,-264.8962,20.31849,0,0
35.4178,5443.563,-136.1169,-15538.85,441.3751,-204.5727,-3.644945,0,0
35.45102,5478.159,-135.8887,-15499.95,434.5086,-131.0607,-15.67162,0,0
35.5341,5485.788,-134.556,-15517.91,442.5519,-166.7089,18.58435,0,0
35.5341,5469.429,-167.8331,-15498.5,439.8361,-165.9211,25.33034,0,0
35.56733,5494.565,-155.5271,-15515.87,442.1827,-239.1451,25.40289,0,0
35.58395,5484.946,-143.8039,-15452.8,443.9692,-236.4743,82.96249,0,0
35.60057,5503.024,-145.8532,-15451.24,445.3231,-181.2377,134.8343,0,0
35.63379,5513.466,-155.1227,-15516.72,446.3433,-221.3132,111.3412,1,0
35.6504,5537.981,-134.4519,-15562.46,442.6753,-286.9084,79.23682,1,0
35.71686,5530.014,-119.7121,-15522.08,439.8585,-331.1756,35.091,1,0
35.71686,5573.641,-127.2746,-15586.45,442.1318,-408.312,-9.851633,1,0
35.76671,5587.994,-126.4155,-15544.77,448.2972,-529.5562,29.72993,1,0
35.78333,5575.479,-82.55267,-15381,452.9974,-433.9442,-2.325493,1,0
35.81656,5564.588,-107.7844,-15412.18,447.7031,-275.3001,-36.81036,1,0
35.86641,5540.58,-143.7592,-15477.31,443.6328,-329.1265,-101.3243,1,0
35.86641,5513.238,-151.3148,-15480.75,440.5104,-330.5992,-43.5616,1,0
35.89964,5510.001,-161.4664,-15470.18,442.5527,-290.0504,-78.71217,1,0
35.93287,5539.634,-128.1653,-15479.92,444.1134,-216.0449,-72.76307,1,0
35.98272,5567.776,-121.498,-15549.5,445.3018,-192.2069,-60.84802,1,0
36.01594,5555.943,-154.0727,-15536.21,450.6339,-156.1483,6.003143,1,0
36.04918,5562.28,-177.8435,-15601.32,445.833,-211.6175,41.91483,1,0
36.09902,5582.521,-156.047,-15582.28,442.1483,-347.8234,-11.86102,1,0
36.11563,5563.517,-121.5742,-15558.69,439.3276,-317.5876,85.44704,1,0
36.13223,5590.954,-159.458,-15574.88,437.1751,-384.599,29.011,1,0
36.18209,5615.119,-140.7651,-15614.86,435.5388,-440.8958,49.69712,1,0
36.19871,5602.388,-129.7587,-15593.2,434.3012,-425.7253,21.65638,1,0
36.19871,5591.36,-127.9884,-15590.87,433.3708,-412.9423,17.03145,1,0
36.28178,5596.073,-105.5985,-15531.35,428.2457,-399.5442,19.27151,1,0
36.31501,5579.601,-112.8928,-15521.25,433.2136,-357.4736,5.993316,1,0
36.31501,5573.541,-125.1701,-15592.2,437.0337,-304.3632,26.84046,1,0
36.34824,5554.426,-131.2611,-15598.77,435.5337,-244.0405,43.8572,1,0
36.38147,5563.029,-152.5405,-15591.48,443.2571,-195.7862,39.62478,1,0
36.4313,5564.034,-174.321,-15534.82,444.7303,-227.5016,33.81554,1,0
36.4313,5547.036,-165.4179,-15506.97,450.2771,-217.0568,65.59014,1,0
36.46454,5540.666,-135.2628,-15521.2,458.9306,-212.2881,19.16704,1,0
36.49776,5554.636,-112.1749,-15531.03,447.7876,-241.5005,-27.19268,1,0
36.53099,5576.392,-90.1217,-15584.01,452.5341,-316.8699,-57.60681,1,0
36.58084,5585.225,-79.98817,-15632.23,442.8492,-426.8429,-12.04587,1,0
36.61406,5625.136,-80.10746,-15510.53,435.4323,-498.2482,-19.20913,1,0
36.64729,5580.188,-91.39351,-15467.28,429.7698,-420.6057,-73.37555,1,0
36.64729,5578.944,-111.1966,-15556.22,429.8944,-340.3839,-88.35303,1,0
36.69713,5549.135,-109.7743,-15597.7,430.017,-386.3447,-101.5476,1,0
36.76359,5534.085,-98.74833,-15511.9,434.5674,-347.9685,-88.15491,1,0
36.79682,5514.861,-99.22585,-15478.41,429.2023,-240.9626,-37.00124,1,0
36.81343,5566.707,-102.9682,-15479.52,433.9819,-223.1876,-72.27789,1,0
36.83004,5554.306,-97.01263,-15452.81,442.0853,-212.2852,-54.84097,1,0
36.87989,5551.458,-137.9258,-15459.15,448.2824,-146.0067,8.725505,1,0
36.91313,5544.852,-147.0498,-15512.93,444.1432,-217.7669,1.384943,1,0
36.91313,5520.983,-91.93298,-15578.51,445.3943,-275.9424,0.1478608,1,0
36.97958,5530.479,-99.65016,-15610.88,441.9079,-352.0938,170.5915,1,0
36.97958,5548.878,-70.15588,-15603.35,443.6655,-315.5367,229.7553,1,0
37.02943,5562.971,-45.47058,-15571.94,440.5719,-359.222,222.1526,1,0
37.02943,5552.683,-48.89153,-15543.38,438.2029,-400.826,315.7996,1,0
37.09588,5611.271,-83.78616,-15515.97,436.3943,-400.3111,409.7866,1,0
37.09588,5636.047,-65.14247,-15417.49,443.8812,-430.9827,326.3241,1,0
37.12912,5630.454,-95.27807,-15431,449.605,-386.325,314.1198,1,0
37.17897,5626.001,-116.1588,-15439.37,445.1031,-371.6268,437.135,1,0
37.21219,5690.019,-95.56042,-15419.4,446.0772,-318.1526,484.2398,1,0
37.21219,5709.94,-63.19264,-15434.26,442.3799,-351.4413,469.5545,1,0
37.24543,5728.193,-39.61369,-15423.68,430.6841,-388.7702,476.0489,1,0
37.29528,5781.701,10.41927,-15400.28,435.0477,-415.8141,575.7831,1,0
37.32851,5819.999,1.943126,-15394.8,438.4027,-487.548,633.7214,1,0
37.36174,5859.879,27.35554,-15388.64,436.5453,-554.8459,613.8768,1,0
37.39496,5919.737,42.11078,-15386.4,435.1322,-638.8252,567.8144,1,0
37.41159,5980.382,55.33281,-15364.98,434.0621,-676.6925,616.221,1,0
37.44482,6043.74,98.38424,-15284.61,446.5503,-706.6181,602.016,1,0
37.47805,6063.648,133.1722,-15266.73,442.8021,-661.1945,521.1187,1,0
37.51128,6087.958,125.0144,-15388.67,448.7879,-628.2955,540.3296,1,0
37.51128,6105.658,146.0551,-15427.91,440.0568,-632.7937,557.8006,1,0
37.54451,6146.003,187.2099,-15379.36,442.2352,-690.3156,616.3027,1,0
37.62759,6189.239,198.2726,-15324.62,443.8992,-737.9227,612.2286,1,0
37.62759,6235.747,251.6564,-15269.71,445.1656,-727.4526,562.5032,1,0
37.66082,6270.304,288.6033,-15215.88,437.2626,-726.0271,544.1675,1,0
37.69405,6266.883,298.5091,-15201.76,440.0828,-718.5475,555.1992,1,0
37.69405,6303.136,343.113,-15195.89,437.8128,-786.244,606.4387,1,0
37.77712,6326.533,394.2747,-15111.02,440.513,-687.3171,704.1525,1,0
37.77712,6363.351,417.1419,-15093.24,447.0122,-578.5063,759.9786,1,0
37.81036,6415.955,393.9624,-15157.85,447.5422,-675.9366,706.6459,1,0
37.84358,6444.023,420.9264,-15152.42,443.5013,-735.2546,664.343,1,0
37.84358,6448.871,428.6544,-15102.2,444.8333,-749.4812,612.3427,1,0
37.92666,6539.015,468.2038,-15070.97,441.414,-637.7791,621.1984,1,0
37.92666,6621.202,513.2316,-15062.06,452.0901,-686.9556,536.5122,1,0
37.9765,6641.779,542.4493,-15070.23,446.9464,-798.2795,548.5317,1,0
37.99312,6647.335,578.3707,-15047.12,451.8591,-799.0781,576.4171,1,0
38.04297,6652.53,596.1234,-15032.21,446.7361,-685.9184,590.9135,1,0
38.04297,6710.681,621.0199,-15013.61,438.3733,-614.3033,633.6315,1,0
38.07619,6756.135,654.7,-15012.13,440.844,-551.6932,634.1712,1,0
38.10942,6787.4,657.4099,-14960.6,442.7408,-561.2115,605.4782,1,0
38.19249,6880.915,707.3505,-14961.67,444.1934,-525.672,604.0612,1,0
38.20793,6947.723,719.1629,-15021.81,449.7336,-491.1606,732.1098,1,0
38.22573,6971.849,733.9316,-14889.93,449.5283,-470.2481,846.8314,1,0
38.27557,6985.478,718.854,-14758.65,444.925,-480.2785,701.5705,1,0
38.27557,6981.152,715.3514,-14810.9,441.3973,-536.6719,536.539,1,0
38.3088,7020.777,735.1673,-14870.54,443.1329,-525.1146,468.9463,1,0
38.34204,7040.861,755.1087,-14807.17,444.4628,-485.0906,461.9949,1,0
38.34204,7052.661,785.1121,-14748.31,449.9102,-462.6853,492.8954,1,0
38.37527,7166.729,790.6653,-14768.33,445.2039,-472.3678,431.3885,1,0
38.4085,7172.796,808.5473,-14796.59,450.4597,-434.0215,341.3609,1,0
38.45834,7179.321,833.6543,-14855.42,454.4688,-464.2206,444.8851,1,0
38.47496,7230.575,852.0909,-14927.52,448.6521,-526.5989,477.8243,1,0
38.52481,7266.181,872.0668,-14893.26,444.1895,-638.383,451.3654,1,0
38.52481,7259.889,944.177,-14851.84,445.2061,-681.3793,380.5902,1,0
38.57465,7260.383,948.6217,-14818.33,450.4154,-750.5466,502.3104,1,0
38.59127,7322.646,983.2735,-14751.04,445.5291,-541.6062,500.8116,1,0
38.64111,7337.963,978.9842,-14748.86,441.7874,-462.5538,566.1529,1,0
38.64111,7394.919,1001.437,-14664.68,438.9309,-479.2632,585.0301,1,0
38.70758,7481.479,995.6165,-14653.03,445.6211,-560.3809,401.0139,1,0
38.75739,7456.531,1009.198,-14682.5,446.3108,-615.2817,355.6585,1,0
38.75739,7464.882,1019.922,-14670.24,442.4042,-620.8985,331.5435,1,0
38.77401,7457.794,1049.525,-14644.84,448.2816,-622.0073,305.1731,1,0
38.82387,7471.102,1106.849,-14663.7,448.3424,-650.1346,241.9433,1,0
38.85709,7496.738,1191.954,-14678.7,452.8123,-537.982,291.3073,1,0
38.85709,7547.327,1200.691,-14698.43,451.7856,-421.998,417.8723,1,0
38.90693,7520.589,1241.83,-14596.52,455.4161,-452.3514,391.0811,1,0
38.94017,7510.104,1236.838,-14557.91,440.4487,-574.4456,198.4575,1,0
38.97338,7496.639,1270.817,-14556.72,437.865,-451.8642,85.63451,1,0
39.00663,7548.558,1234.906,-14576.41,449.2001,-206.4821,200.3198,1,0
39.05647,7592.863,1228.707,-14541.1,457.871,-156.2247,263.1726,1,0
39.05647,7663.413,1198.794,-14532.42,455.6194,-213.6275,279.5127,1,0
39.0897,7699.667,1206.228,-14492.04,445.0114,-210.3725,240.2398,1,0
39.12294,7674.189,1212.367,-14498.35,454.6186,-206.3375,187.5417,1,0
39.15616,7695.732,1194.275,-14578.02,453.0942,-253.1904,173.1357,1,0
39.15616,7684.602,1195.371,-14669.33,451.9135,-361.5706,320.9948,1,0
39.23923,7689.528,1192.357,-14619.77,450.9993,-454.1859,370.3299,1,0
39.23923,7649.183,1207.28,-14525.58,454.7233,-515.6655,302.8374,1,0
39.27247,7664.053,1235.929,-14508.22,453.1278,-415.5149,270.4035,1,0
39.3057,7674.68,1245.138,-14493.21,443.0326,-304.2939,245.7736,1,0
39.35554,7714.203,1260.518,-14454.51,439.7476,-292.8671,212.7649,1,0
39.38877,7760.288,1275.077,-14445.39,450.5464,-363.1224,195.0072,1,0
39.38877,7707.199,1296.758,-14460,463.2401,-447.8223,217.7546,1,0
39.42201,7706.853,1306.146,-14460.6,464.0612,-413.2049,209.9603,1,0
39.45524,7708.157,1286.191,-14491.43,469.0851,-319.9919,194.8473,1,0
39.50507,7735.13,1281.51,-14528.68,477.3173,-257.4624,224.0023,1,0
39.53831,7783.942,1249.79,-14528.66,474.6952,-287.7992,184.7726,1,0
39.57153,7853.829,1235.132,-14520.02,468.2032,-417.1216,279.6509,1,0
39.57153,7843.347,1255.748,-14419.48,458.7662,-469.3127,365.9164,1,0
39.62139,7819.034,1241.302,-14320.82,460.3925,-447.3669,190.0301,1,0
39.65461,7904.984,1252.13,-14379.99,461.6239,-338.8043,-43.25084,1,0
39.68784,7854.741,1211.398,-14419.16,462.551,-299.6117,-158.7536,1,0
39.68784,7872.092,1260.914,-14450.63,445.5188,-316.6652,2.266692,1,0
39.72108,7897.992,1269.75,-14437.35,445.7952,-399.9951,115.9068,1,0
39.75431,7932.629,1298.391,-14477.33,450.4602,-412.5585,123.7271,1,0
39.80415,7925.17,1297.833,-14471.57,449.611,-358.998,144.9274,1,0
39.83738,7914.34,1289.338,-14427.47,444.5408,-286.5083,191.2633,1,0
39.87061,7928.688,1308.037,-14420.57,445.1126,-223.2325,201.0574,1,0
39.92045,7998.874,1303.218,-14390.1,450.0018,-328.8871,30.52113,1,0
39.92045,7965.451,1308.115,-14440.22,449.3217,-470.0083,75.69931,1,0
39.95368,7955.844,1348.149,-14426.74,444.3783,-498.3605,146.3334,1,0
39.98691,7947.912,1364.05,-14464.27,449.4755,-423.9708,244.5822,1,0
40.02014,7981.196,1390.256,-14427.78,453.385,-363.3287,309.1754,1,0
40.03675,7976.196,1387.754,-14363.48,451.9443,-491.9954,288.8609,1,0
40.0865,7992.886,1410.934,-14312.37,446.4106,-644.8318,172.5769,1,0
40.10321,7975.214,1457.07,-14320.21,446.6183,-536.1044,98.30846,1,0
40.13645,7955.675,1430.963,-14266.8,442.3587,-402.4233,5.70035,1,0
40.16967,7987.955,1417.206,-14315.03,456.8438,-337.2092,-30.95326,1,0
40.21952,8032.161,1460.598,-14326.85,459.0588,-354.2068,-20.82443,1,0
40.21952,8059.94,1469.011,-14445.88,456.3054,-457.9207,31.44187,1,0
40.25274,8080.644,1507.143,-14535.94,458.6176,-562.4183,170.1045,1,0
40.31921,8020.582,1462.723,-14353.22,460.3725,-707.9863,69.64946,1,0
40.31921,7949.811,1470.438,-14247.9,461.6974,-470.0797,-283.1719,1,0
40.36905,7918.668,1468.224,-14373.79,453.8283,-234.1049,-399.4053,1,0
40.40229,7941.218,1512.716,-14560.08,456.6644,-146.1276,-141.5082,1,0
40.43552,7963.845,1498.72,-14550.65,458.8282,-223.7204,144.3345,1,0
40.43552,7976.517,1478.771,-14383.65,456.0412,-312.1024,157.2952,1,0
40.48537,8000.381,1454.33,-14254.83,458.3333,-286.0986,-68.62272,1,0
40.51859,8022.802,1483.024,-14358.26,460.078,-289.1566,-124.8984,1,0
40.55182,7998.66,1494.742,-14469.77,461.4,-311.1222,1.453038,1,0
40.55182,8019.81,1522.251,-14433.2,462.396,-337.2524,143.7929,1,0
40.61827,7996.949,1526.354,-14258.96,458.7097,-285.3533,104.7151,1,0
40.63488,8003.605,1535.807,-14205.73,464.7415,-278.2356,-60.70789,1,0
40.66811,8031.749,1529.414,-14312.82,456.0445,-305.6887,-97.03754,1,0
40.70134,8062.998,1515.352,-14336.34,458.2477,-225.4904,27.30741,1,0
40.73458,8063.331,1499.899,-14274.75,459.9295,-198.7524,82.15866,1,0
40.76781,8063.274,1469.031,-14282.17,461.2083,-244.8435,26.33545,1,0
40.76781,8047.426,1440.845,-14288.13,457.7447,-372.6027,-72.55215,1,0
40.85088,8005.14,1428.081,-14219.81,459.5213,-294.4888,-161.8098,1,0
40.85088,7999.222,1441.559,-14234.35,460.875,-181.8949,-185.8931,1,0
40.88412,7981.291,1462.914,-14306.75,453.0395,-247.551,-129.0248,1,0
40.93397,7947.563,1483.605,-14308.04,455.912,-304.1159,-154.3518,1,0
40.9672,7904.04,1463.862,-14311.37,444.82,-252.764,-270.5476,1,0
40.9672,7927.339,1469.712,-14361.67,445.2178,-266.2378,-347.2262,1,0
41.00043,7904.257,1472.992,-14428.98,449.9796,-341.2155,-289.0904,1,0
41.05029,7863.435,1458.794,-14437.14,449.2077,-404.9415,-222.9052,1,0
41.0669,7855.649,1477.778,-14403.33,457.4934,-245.5431,-195.6146,1,0
41.11674,7843.255,1472.277,-14468.19,463.8315,-199.2876,-205.9489,1,0
41.14998,7887.171,1459.124,-14516.51,464.2324,-259.4282,-218.7766,1,0
41.1832,7925.343,1486.676,-14514.39,455.6563,-358.2263,-91.70304,1,0
41.1832,7899.198,1506.559,-14426.04,457.9529,-383.9106,4.525496,1,0
41.23305,7803.926,1456.276,-14319.53,450.8443,-263.825,-74.30994,1,0
41.26623,7803.285,1442.126,-14360,449.8449,-26.60256,-158.7645,1,0
41.29951,7819.696,1435.739,-14424.29,457.9563,13.10974,-135.7099,1,0
41.29951,7819.199,1445.279,-14409.17,450.8676,-49.16953,-77.20677,1,0
41.33274,7830.115,1435.972,-14387.57,454.3136,-178.83,-215.2075,1,0
41.38258,7816.498,1442.167,-14389.87,443.6609,-377.4704,-342.4332,1,0
41.41581,7807.382,1454.675,-14406.02,439.963,-288.6253,-270.8586,1,0
41.44904,7783.998,1459.803,-14432.75,441.5977,-126.9412,-227.8394,1,0
41.48227,7797.368,1469.237,-14468.63,442.8784,-178.5142,-167.2055,1,0
41.49889,7831.081,1449.822,-14448.28,439.4522,-456.6576,-112.3531,1,0
41.5321,7807.162,1464.865,-14410.42,445.7224,-595.489,-80.34306,1,0
41.56535,7801.202,1486.316,-14436.79,446.1067,-468.653,-79.19202,1,0
41.59858,7780.196,1507.085,-14481.27,450.8451,-298.5424,-20.52023,1,0
41.59858,7789.805,1469.682,-14434.27,450.0428,-226.9995,23.62398,1,0
41.64843,7797.342,1489.751,-14445.85,449.4312,-359.6051,-7.146576,1,0
41.71489,7802.157,1502.821,-14404.77,448.9669,-446.3045,-87.71051,1,0
41.71489,7798.221,1540.417,-14429.83,457.4788,-285.7888,-34.48706,1,0
41.74812,7797.556,1561.259,-14450.08,459.5494,-87.87491,46.55179,1,0
41.78135,7824.87,1510.519,-14510.91,456.684,-91.93963,102.4537,1,0
41.83118,7824.791,1511.453,-14528.45,458.9095,-315.7038,-31.88495,1,0
41.83118,7756.1,1527.584,-14448.56,456.1659,-638.172,-127.9271,1,0
41.84781,7763.538,1557.534,-14346.35,458.4874,-628.8914,-243.7093,1,0
41.89765,7781.603,1598.002,-14487.62,460.251,-422.4362,-248.3256,1,0
41.94749,7786.703,1619.849,-14561.29,457.1528,-363.8156,-13.57207,1,0
41.98072,7756.376,1587.522,-14461.17,454.7714,-355.122,81.23841,1,0
42.01395,7722.255,1555.904,-14364.51,457.3764,-384.683,-19.66693,1,0
42.04709,7722.964,1569.228,-14443.54,463.7932,-362.0449,-76.02574,1,0
42.06379,7776.914,1618.049,-14507.34,468.683,-316.9471,118.7194,1,0
42.09703,7777.325,1615.287,-14406.46,463.5306,-315.4153,185.1155,1,0
42.13025,7728.982,1536.492,-14280.54,455.1344,-292.9607,-13.89832,1,0
42.14687,7739.798,1517.107,-14390.54,457.5691,-328.4825,-247.7968,1,0
42.16349,7715.004,1578.711,-14510.3,454.9975,-298.3572,-173.0114,1,0
42.22993,7696.228,1609.124,-14515.38,457.4614,-190.8962,-48.73712,1,0
42.22993,7707.573,1638.854,-14442.63,459.3438,-42.19565,-13.72325,1,0
42.27979,7722,1604.857,-14447.82,456.3454,-42.82537,-118.036,1,0
42.31302,7704.4,1548.747,-14441.8,458.48,-151.6653,-205.2554,1,0
42.34625,7699.976,1561.15,-14443.82,464.5397,-207.362,-235.1513,1,0
42.36287,7701.208,1583.887,-14551.69,460.2972,-116.1439,-187.3142,1,0
42.3961,7699.003,1561.312,-14529.88,461.4713,-91.82812,-65.96762,1,0
42.42933,7660.929,1532.903,-14489.7,453.4967,-4.394383,-9.111113,1,0
42.46256,7655.292,1479.049,-14472.13,456.2615,172.4501,-146.0581,1,0
42.49579,7690,1422.457,-14603.75,449.5176,-16.89013,-229.9971,1,0
42.52902,7703.437,1424.822,-14619.96,448.8024,-261.2268,-133.0197,1,0
42.57886,7654.019,1462.339,-14566.64,452.7041,-250.1744,-127.3574,1,0
42.57886,7652.962,1415.888,-14491.23,455.6995,-114.7813,-81.68354,1,0
42.6121,7663.446,1417.134,-14529.83,457.9933,127.1246,-86.07833,1,0
42.64532,7677.191,1360.719,-14603.57,450.8821,-1.959171,-93.0711,1,0
42.67856,7625.815,1392.105,-14633.14,454.3115,-305.3611,-152.1632,1,0
42.69517,7602.236,1450.743,-14643.24,448.0782,-354.8676,-121.9473,1,0
42.7284,7604.414,1458.086,-14565.32,452.1856,-98.80902,-54.72324,1,0
42.76163,7609.676,1427.238,-14598.56,450.9064,-115.1241,-152.36,1,0
42.81148,7640.536,1409.312,-14676.96,449.9367,-284.2757,-107.6259,1,0
42.82809,7625.549,1401.314,-14651.29,453.6369,-483.6326,-24.33821,1,0
42.87794,7574.375,1382.093,-14509.47,456.4722,-535.0549,-23.34022,1,0
42.87794,7573.152,1353.207,-14408.67,449.7759,-326.8903,-75.92688,1,0
42.91117,7569.174,1377.904,-14526.74,449.0912,-186.926,-105.4326,1,0
42.9444,7584.127,1383.735,-14607.16,453.0106,-220.2789,-83.9587,1,0
42.99424,7639.005,1403.895,-14657.45,451.5827,-443.0297,66.22952,1,0
43.02748,7591.375,1458.235,-14477.4,459.3575,-351.3629,170.8804,1,0
43.06071,7544.016,1485.433,-14408.35,456.435,31.4884,173.4139,1,0
43.09393,7601.101,1383.221,-14469.87,458.623,17.38791,-11.05792,0,0
43.11055,7584.021,1357.2,-14534.83,455.8568,-345.1756,-109.4866,0,0
43.12717,7601.027,1397.325,-14580.09,453.7354,-451.0541,-105.7889,0,0
43.1604,7606.416,1445.893,-14504.94,447.6819,-172.9363,-74.59184,0,0
43.19363,7630.586,1417.717,-14531.63,443.063,70.32799,-63.40807,0,0
43.19363,7665.75,1348.573,-14564.23,452.8464,25.72449,-69.79255,0,0
43.24347,7668.258,1349.029,-14596.85,455.9078,-133.9104,-146.6662,0,0
43.2767,7622.493,1341.835,-14568.48,449.3838,-207.5643,-174.3059,0,0
43.30993,7610.777,1380.855,-14554.42,453.2609,-227.1078,-102.9866,0,0
43.34317,7575.305,1374.287,-14623.36,451.7986,-137.0437,-0.9449648,0,0
43.39301,7569.359,1309.559,-14606.14,455.114,-83.19106,-28.50293,0,0
43.39301,7608.182,1291.283,-14619.38,466.5107,-352.4149,-167.1286,0,0
43.42624,7619.145,1329.653,-14630.45,461.9123,-563.9927,-164.7483,0,0
43.49268,7589.913,1385.809,-14630.96,467.2352,-291.7048,-31.70915,0,0
43.52593,7554.342,1394.511,-14613.44,462.4184,-136.4987,-4.174263,0,0
43.54255,7567.173,1379.04,-14576.62,463.1445,-264.6316,-62.19102,0,0
43.57578,7561.632,1387.192,-14612.63,468.1139,-327.4633,-118.8218,0,0
43.609,7574.156,1373.529,-14630.12,467.4591,-257.6195,-37.44158,0,0
43.609,7557.27,1354.27,-14616.75,471.3635,-168.3439,178.2163,0,0
43.64224,7565.533,1328.553,-14552.12,469.8886,-193.1879,54.999,0,0
43.69209,7548.714,1320.102,-14562.49,473.1626,-365.7209,-61.21762,0,0
43.72532,7551.496,1357.01,-14573.76,471.2041,-427.7018,-161.5357,0,0
43.72532,7550.439,1343.249,-14613.4,465.2456,-329.2971,-104.8746,0,0
43.75854,7565.27,1348.327,-14642.54,465.1025,-208.3248,-30.91344,0,0
43.79177,7563.42,1355.625,-14598.21,464.9821,-196.3843,3.768672,0,0
43.84162,7562.091,1364.602,-14596.33,464.8799,-121.4448,-16.62911,0,0
43.87484,7566.699,1327.203,-14667.97,469.2236,-185.3808,13.35719,0,0
43.90808,7597.993,1298.693,-14693.79,463.6681,-438.0167,-22.00052,0,0
43.90808,7628.594,1308.069,-14670.1,463.8408,-487.2355,61.08743,0,0
43.94131,7644.189,1386.302,-14599.7,468.3993,-230.2241,234.1211,0,0
43.99115,7625,1363.079,-14606.71,467.443,-152.0338,116.9771,0,0
44.02438,7606.922,1347.53,-14675.18,466.6985,-329.4832,73.74426,0,0
44.02438,7588.634,1323.492,-14650.99,457.2561,-401.7473,116.0295,0,0
44.09084,7604.572,1345.075,-14604.64,463.3329,-256.219,120.4044,0,0
44.14069,7631.167,1368.297,-14560.28,463.5526,-217.6443,37.59858,0,0
44.14069,7625.979,1356.161,-14508.69,468.1495,-321.4294,-13.43005,0,0
44.17391,7604.225,1369.045,-14481.58,467.2249,-196.9165,-3.16637,0,0
44.19051,7576.489,1344.558,-14527.57,470.9379,-81.51943,-15.51278,0,0
44.24038,7566.395,1345.798,-14611.66,473.7623,-20.72613,71.73051,0,0
44.25699,7582.014,1319.095,-14619.49,471.4695,-152.802,130.3321,0,0
44.27361,7560.783,1335.31,-14553.4,469.6964,-238.347,119.7912,0,0
44.32346,7560.127,1338.922,-14575.99,468.3266,-285.8333,39.73288,0,0
44.35668,7590.731,1300.748,-14634.3,462.8382,-393.5216,9.121836,0,0
44.40653,7592.019,1252.82,-14610.15,458.6409,-463.6951,79.31596,0,0
44.43976,7587.472,1299.45,-14560.59,459.8731,-324.9793,211.5728,0,0
44.43976,7601.732,1308.684,-14486.15,460.8277,-160.444,133.7567,0,0
44.47299,7619.28,1294.796,-14470.38,461.5669,-176.4975,-27.15488,0,0
44.50623,7631.55,1265.446,-14550.52,462.1389,-343.7924,-184.8284,0,0
44.53946,7639.753,1309.622,-14549.91,462.5812,-294.6966,-244.3853,0,0
44.55606,7628.21,1332.435,-14586.05,458.4916,-127.9528,-131.2153,0,0
44.5893,7612.659,1337.724,-14579.36,450.9417,70.31251,-117.3477,0,0
44.65574,7609.587,1296.349,-14586.4,462.9153,-131.1988,-242.1578,0,0
44.67237,7581.74,1263.653,-14540.81,467.652,-393.1941,-412.7733,0,0
44.68899,7549.389,1287.528,-14529.24,466.8361,-311.7491,-538.3257,0,0
44.73883,7484.861,1300.369,-14553.73,466.2025,-63.37415,-434.7072,0,0
44.77205,7463.418,1267.061,-14578.05,461.2791,52.16117,-397.4271,0,0
44.77205,7431.796,1250.558,-14647.62,457.5144,-141.1519,-514.3818,0,0
44.82191,7407.948,1256.926,-14721.75,459.0768,-370.7704,-612.3821,0,0
44.83852,7380.119,1275.241,-14754.89,460.2824,-372.5602,-453.3579,0,0
44.88836,7331.559,1278.282,-14658,470.074,-196.596,-285.1918,0,0
44.88836,7312.637,1223.086,-14558.18,473.1224,39.70464,-269.4347,0,0
44.95481,7283.19,1171.061,-14603.7,471.0015,301.4301,-417.7874,0,0
44.97144,7306.652,1144.839,-14719.39,464.9287,273.236,-477.6514,0,0
45.00467,7280.805,1120.696,-14807.68,460.2766,30.11029,-423.6746,0,0
45.03789,7221.668,1114.797,-14770.66,456.7236,-150.1264,-296.5433,0,0
45.07113,7219.129,1126.183,-14724.22,458.4513,-62.68775,-395.1104,0,0
45.10436,7225.555,1135.245,-14707.24,459.786,0.7388352,-444.985,0,0
45.12097,7188.944,1122.548,-14750.55,465.2473,-6.703782,-427.0149,0,0
45.13692,7185.905,1104.28,-14779,469.4237,-53.4186,-428.3429,0,0
45.18743,7159.799,1095.067,-14794.91,468.1754,-104.8735,-456.6536,0,0
45.22065,7142.649,1113.837,-14807.85,453.9146,-134.3463,-498.3792,0,0
45.2539,7085.834,1077.533,-14847.3,465.1747,-53.58232,-529.5309,0,0
45.28712,7038.628,1014.637,-14913.63,460.4981,-25.41801,-404.9262,0,0
45.30374,7013.254,964.7441,-14967.17,470.2176,-96.02348,-389.8717,0,0
45.33696,7010.15,978.0744,-14987.56,473.2118,-213.8274,-412.7746,0,0
45.37019,7022.953,974.39,-14985.88,475.4814,-365.827,-487.9612,0,0
45.40342,7004.657,965.4124,-14939.64,477.1921,-360.0435,-482.5417,0,0
45.45327,6928.211,965.6697,-14939.2,469.61,-315.7474,-395.2202,0,0
45.48649,6893.792,956.3533,-14943.93,477.088,-200.8318,-381.1205,0,0
45.51972,6843.95,946.35,-15001.39,478.3555,-155.1051,-433.6516,0,0
45.51972,6826.681,942.4659,-14988.33,474.8661,-219.7998,-291.1493,0,0
45.60279,6828.802,963.192,-14976.73,472.1754,-170.3155,-251.9638,0,0
45.60279,6844.604,962.8073,-14981.8,465.6727,-212.9952,-309.4211,0,0
45.63603,6833.129,955.1014,-14975.29,460.6982,-281.2784,-400.0166,0,0
45.66926,6799.644,956.1904,-14957.73,461.3368,-234.6891,-402.2166,0,0
45.66926,6774.821,941.8358,-15009.31,461.8397,-127.1331,-369.1387,0,0
45.75234,6746.673,940.0441,-15030.65,457.8053,-98.89497,-320.4904,0,0
45.75234,6730.403,931.2401,-15023.27,463.5995,-172.7168,-370.2651,0,0
45.78557,6688.876,923.7165,-15041.58,468.0419,-177.1625,-395.5778,0,0
45.8188,6724.441,934.8981,-15144.9,462.576,-233.1649,-304.0625,0,0
45.85203,6715.875,893.889,-15073.79,467.2616,-434.0307,-190.8924,0,0
45.90188,6680.143,910.4866,-14879.32,457.5522,-381.7121,-300.9672,0,0
45.90188,6612.575,917.959,-14918.77,467.8627,-167.2627,-447.3761,0,0
45.9351,6550.659,896.2535,-15014.28,471.3204,-65.99919,-475.2999,0,0
45.96835,6559.636,867.7526,-15066.08,469.5232,-116.1678,-454.822,0,0
45.96835,6554.134,872.8724,-15036.67,477.0009,-150.0452,-312.8793,0,0
46.05142,6557.449,883.763,-15023.82,473.8384,-0.2024309,-326.708,0,0
46.05142,6530.899,856.9317,-15011.52,471.3999,49.5688,-335.9745,0,0
46.08465,6524.705,825.6368,-15089.41,465.0914,-56.5865,-517.0323,0,0
46.16772,6481.998,829.7535,-15117.64,469.1289,-145.5925,-340.3788,0,0
46.16772,6452.377,832.1505,-15082.34,467.7846,-62.27203,-260.8298,0,0
46.20096,6453.848,835.421,-15122.56,466.7543,-84.82312,-268.2824,0,0
46.23419,6449.162,829.3642,-15179.55,465.9668,-152.3702,-259.7897,0,0
46.23419,6405.384,816.163,-15135.16,469.7983,-193.8263,-265.13,0,0
46.26742,6411.495,781.9968,-15112.98,468.2948,-163.971,-314.5488,0,0
46.30066,6377.089,794.9865,-15083.51,462.7102,-169.8764,-206.2172,0,0
46.3505,6368.195,800.827,-15110.57,454.0142,-201.7669,-297.5067,0,0
46.38373,6324.528,785.6519,-15128.82,451.8181,-165.1337,-263.9055,0,0
46.38373,6296.391,768.8066,-15165.75,454.6027,-189.399,-324.4632,0,0
46.41696,6295.672,741.8425,-15144.92,452.3297,-241.1283,-207.7094,0,0
46.45019,6273.803,783.6144,-15182.95,455.0507,-270.2873,-205.5531,0,0
46.50003,6275.626,783.7333,-15259.34,457.1562,-391.5021,-272.8546,0,0
46.50003,6295.539,817.3043,-15248.61,458.7841,-363.5846,-213.7001,0,0
46.56649,6279.36,798.8497,-15253.21,464.4728,-393.5602,-242.304,0,0
46.56649,6239.977,804.8474,-15270.68,464.3943,-329.8955,-329.9915,0,0
46.61634,6205.037,791.8779,-15250.34,464.3315,-274.4713,-285.4539,0,0
46.64956,6192.372,797.6413,-15263.16,473.1434,-235.7525,-295.4282,0,0
46.68279,6195.642,776.7356,-15294.73,471.005,-273.3478,-421.8931,0,0
46.71603,6127.976,762.0375,-15338.38,469.3507,-160.1919,-362.2401,0,0
46.73264,6095.847,777.5957,-15401.17,463.6409,-55.40365,-192.9155,0,0
46.74926,6093.173,759.7736,-15372.15,468.1335,-247.7859,59.42097,0,0
46.7991,6116.334,775.1384,-15261.86,467.1338,-369.5098,-118.5149,0,0
46.84895,6072.766,761.5838,-15244.72,461.9314,-288.1245,-355.4101,0,0
46.86556,6066.791,739.2026,-15326.67,462.3861,-263.025,-400.3489,0,0
46.89879,6027.533,723.3997,-15406.75,462.7397,-155.0797,-420.347,0,0
46.91541,6002.722,739.2458,-15366.7,454.1525,-56.52314,-354.1944,0,0
46.94864,5996.741,752.6867,-15385.45,456.4642,0.8313385,-346.8795,0,0
46.98186,5986.314,744.3022,-15402.68,462.6831,-62.93259,-299.8947,0,0
47.01509,5930.366,698.169,-15420.95,458.5844,-190.1772,-281.0898,0,0
47.01509,5913.875,697.455,-15458.82,468.7512,-245.5116,-326.0032,0,0
47.06493,5897.675,678.3305,-15449.61,463.229,-256.1774,-310.4775,0,0
47.13139,5898.308,670.6198,-15439.84,463.4324,-254.5017,-254.5304,0,0
47.13139,5874.114,677.19,-15454.07,468.0195,-332.29,-306.2426,0,0
47.18124,5879.667,673.6151,-15476.7,467.0898,-448.3132,-246.948,0,0
47.21447,5864.733,687.7458,-15435.94,461.9387,-452.1094,-257.3369,0,0
47.2477,5858.479,708.7394,-15373.35,466.8616,-333.7161,-265.6601,0,0
47.2477,5861.06,681.7518,-15377.31,461.7613,-212.3608,-269.8844,0,0
47.28089,5857.064,663.5016,-15372.39,453.4301,-146.091,-215.289,0,0
47.31416,5864.623,648.6503,-15395.05,455.9381,-86.98093,-281.1225,0,0
47.36399,5848.848,656.3646,-15439.88,466.7383,-174.1726,-264.522,0,0
47.38061,5826.289,665.8155,-15405.22,466.1363,-224.9915,-202.0119,0,0
47.43046,5794.125,699.8253,-15387.33,465.6681,-215.7062,-174.0093,0,0
47.44707,5772.372,702.6974,-15342.47,465.3038,-98.93858,-134.8192,0,0
47.46369,5759.715,699.4402,-15374.55,460.5891,-0.1282374,-70.2477,0,0
47.51353,5781.71,667.1213,-15410.08,461.4171,-9.449674,-7.148067,0,0
47.54676,5804.668,625.9155,-15439.3,462.0557,-87.66903,50.82337,0,0
47.54676,5809.445,603.4739,-15459.22,471.4098,-125.6531,2.568308,0,0
47.61322,5781.429,581.0378,-15426.55,465.259,-128.8479,-57.90965,0,0
47.64645,5774.873,585.2307,-15452.31,473.8391,-34.48939,-167.7307,0,0
47.66306,5767.012,562.1497,-15478.44,471.5222,-56.47138,-32.00787,0,0
47.6963,5873.354,593.5543,-15417.29,474.1623,-114.8425,243.7737,0,0
47.72952,5859.705,555.8044,-15321.6,471.73,-148.579,30.44264,0,0
47.77937,5799.618,529.4324,-15382.48,469.8521,-143.4254,-116.7596,0,0
47.77937,5790.515,528.4343,-15466.71,463.9728,-63.63818,-172.5164,0,0
47.8126,5780.57,505.8583,-15529.87,468.3378,-131.5585,-160.3316,0,0
47.84583,5797.681,513.3226,-15516.92,471.6738,-212.9781,-178.6869,0,0
47.87906,5803.322,519.3779,-15474.55,474.2144,-165.231,-217.6142,0,0
47.91229,5820.09,475.5776,-15468.49,467.2781,-119.236,-228.9993,0,0
47.96214,5776.64,469.0209,-15430.43,466.3967,-134.7913,-169.4252,0,0
47.96214,5735.917,437.8004,-15484.29,474.5849,-93.8537,-113.2744,0,0
47.99537,5725.056,417.6583,-15495.42,467.542,-96.43988,-155.1499,0,0
48.0286,5711.586,435.933,-15491.54,462.1482,-176.0962,-146.7955,0,0
48.07844,5682.836,419.3012,-15444.06,475.7549,-212.6503,-89.47507,0,0
48.07844,5663.479,436.8887,-15464.13,477.2898,-223.5958,-63.20266,0,0
48.11167,5645.798,438.5164,-15448.36,474.0102,-235.4096,-91.77513,0,0
48.17812,5656.002,452.2722,-15482.73,471.4845,-128.7804,-77.79164,0,0
48.17812,5637.658,453.1077,-15524.42,469.5429,-156.6081,-96.05515,0,0
48.22798,5638.46,441.8174,-15525.07,463.6222,-176.538,-78.30495,0,0
48.27782,5622.88,424.5783,-15495.43,472.394,-157.4155,-83.97406,0,0
48.31104,5635.756,418.3197,-15479.24,465.8069,-188.2005,-121.4009,0,0
48.31104,5628.271,427.114,-15449.02,474.0631,-252.4178,-99.13222,0,0
48.36089,5632.887,409.7316,-15444.68,475.9399,-191.9776,-86.59622,0,0
48.39411,5643.413,396.7047,-15459.08,477.3595,-89.69473,-61.04322,0,0
48.42735,5658.419,364.8718,-15456.77,473.9955,-48.39822,-34.44023,0,0
48.44397,5665.728,358.5793,-15438.34,471.4089,-61.64104,28.63939,0,0
48.4938,5648.276,335.2804,-15426.46,469.4245,4.984015,49.71953,0,0
48.51041,5647.346,353.2781,-15417.4,467.9059,-37.9841,1.222125,0,0
48.54365,5634.683,369.5978,-15426.02,475.6101,-143.4191,-78.53466,0,0
48.57688,5670.658,369.0667,-15469.22,481.4952,-189.5172,50.6159,0,0
48.61011,5687.279,376.6676,-15351.56,481.5428,-232.446,33.39034,0,0
48.64334,5666.875,356.1211,-15322.61,481.5535,-191.9833,-111.9176,0,0
48.65995,5639.214,316.2744,-15451.37,485.9685,-145.936,-236.678,0,0
48.69318,5604.945,276.1314,-15513.36,480.4531,-198.7541,-252.3573,0,0
48.7098,5570.117,281.2581,-15464.25,480.6425,-238.5228,-181.7272,0,0
48.75965,5601.397,272.2688,-15423.25,485.2009,-167.1244,-197.5227,0,0
48.84272,5601.226,263.5494,-15424.01,479.8009,-163.6644,-188.35,0,0
48.84272,5617.946,283.8391,-15473.37,466.7903,-140.7807,-158.1545,0,0
48.87595,5599.913,256.48,-15502.21,470.14,-135.483,-129.946,0,0
48.90918,5584.105,268.0149,-15555.16,463.8516,-76.36198,-134.627,0,0
48.90918,5584.427,298.2053,-15531.18,463.4915,-130.1515,-157.8351,0,0
48.94241,5592.655,311.5728,-15511.51,463.239,-239.2393,-91.59672,0,0
48.95902,5563.699,313.1226,-15490.77,471.9306,-250.5466,-78.61358,0,0
49.02548,5545.104,281.2386,-15501.4,469.7239,-181.7066,-120.8362,0,0
49.02548,5521.177,283.6425,-15579.22,468.04,-228.6465,-143.7407,0,0
49.07533,5523.121,264.6463,-15601.96,466.7602,-192.42,-28.00229,0,0
49.10855,5535.988,216.0039,-15570.32,470.2235,-175.6939,-75.85766,0,0
49.14178,5513.968,250.0049,-15590.17,468.4472,-162.0335,-105.6665,0,0
49.17501,5484.105,222.0036,-15586.27,458.2318,-98.96435,-34.34177,0,0
49.19162,5494.82,196.4313,-15616.28,459.3033,-115.6397,-62.72,0,0
49.24148,5500.002,219.2908,-15584.68,451.2881,-171.4474,-111.6956,0,0
49.25809,5478.764,181.674,-15596.84,454.0577,-125.8047,-83.81844,0,0
49.29132,5478.318,182.0184,-15571.58,451.7823,-130.5434,-18.21101,0,0
49.32455,5478.269,160.4503,-15511.1,458.9413,-94.08109,26.83595,0,0
49.35778,5485.154,165.3416,-15530.16,455.5799,-40.00169,51.33598,0,0
49.35778,5500.64,164.9817,-15534.73,461.895,-161.7109,-7.237412,0,0
49.40763,5462.839,145.0743,-15550.37,457.878,-333.8003,-126.2152,0,0
49.44086,5482.912,191.0994,-15604.36,459.2523,-303.3879,-2.845203,0,0
49.47409,5525.078,163.4063,-15503.68,460.3192,-278.0955,49.33327,0,0
49.47409,5489.886,174.5928,-15412.23,470.0099,-344.8732,-65.00113,0,0
49.50732,5457.577,153.4709,-15431.09,468.5552,-273.1833,-51.47301,0,0
49.59038,5422.003,120.942,-15559.84,471.8643,-216.4134,-48.36051,0,0
49.59038,5398.401,83.06483,-15596.26,469.9513,-276.7328,-71.50686,0,0
49.62363,5422.779,110.9563,-15567.45,464.045,-171.7724,-62.08096,0,0
49.65685,5456.121,118.2186,-15568.53,463.9582,-153.4945,-55.4326,0,0
49.7067,5438.627,135.1305,-15554.84,472.7585,-171.7187,-49.26423,0,0
49.7067,5403.288,86.26046,-15539.85,470.6177,-110.9407,-61.4782,0,0
49.73993,5389.806,61.34837,-15561.57,464.5364,-172.3239,-68.62639,0,0
49.77316,5388.646,98.02649,-15594.73,473.178,-237.9108,-52.49152,0,0
49.80639,5382.505,130.7976,-15598.92,470.9158,-172.7915,-56.78686,0,0
49.85624,5365.902,96.23223,-15631.87,473.6047,-176.4163,-139.3045,0,0
49.88947,5391.164,114.3144,-15648,471.2163,-238.4834,-113.9639,0,0
49.9227,5394.12,127.2324,-15623.55,469.3781,-219.138,-72.57507,0,0
49.93931,5429.83,116.2151,-15609.07,467.9661,-247.181,-34.51166,0,0
49.95593,5452.855,81.34978,-15582.33,466.8839,-343.2958,-125.3749,0,0
50.00578,5455.031,98.09007,-15580.63,470.4881,-297.1693,-31.13779,0,0
50.00578,5445.665,87.82347,-15569.29,473.2409,-223.6822,5.193688,0,0
50.03901,5413.078,64.64686,-15555.04,470.9044,-183.438,-9.540582,0,0
50.07223,5398.236,47.13865,-15576.26,477.9709,-112.5242,-34.52773,0,0
50.12208,5423.596,28.46,-15605.75,474.4959,-108.0243,-52.06628,0,0
50.15532,5391.044,62.08937,-15606.07,480.6839,-162.13,22.5528,0,0
50.18855,5374.042,58.128,-15559.68,476.532,-157.1122,135.4342,0,0
50.18855,5401.106,41.99894,-15506.44,473.3366,-133.6954,78.50472,0,0
50.22178,5390.934,28.7663,-15546.68,470.8822,-174.6185,52.06721,0,0
50.255,5416.521,45.46547,-15569.77,473.4326,-301.259,-30.42857,0,0
50.28823,5421.785,85.03003,-15597.4,470.9467,-271.669,53.18143,0,0
50.33808,5474.615,44.51102,-15553.1,469.0421,-369.0261,17.016,0,0
50.37131,5481.761,30.28048,-15481.54,476.4497,-364.5137,-28.78598,0,0
50.40454,5490.471,32.87938,-15498.94,468.8137,-262.3701,-49.44846,0,0
50.42115,5421.708,7.358316,-15564.47,471.8338,-228.9178,-18.13275,0,0
50.45439,5407.897,-28.56566,-15616.83,478.5747,-290.2441,-30.18045,1,0
50.48761,5391.881,-24.74719,-15613.58,479.2863,-321.5257,2.421888,1,0
50.52085,5429.598,-10.46476,-15558.89,479.8118,-204.5549,71.07336,1,0
50.53746,5460.726,-40.28654,-15526.98,480.1946,-230.5389,131.9955,1,0
50.57069,5449.068,-49.53827,-15504.85,484.8997,-244.6129,49.77651,1,0
50.63715,5453.422,-67.40546,-15542.32,479.6105,-187.7742,85.82439,1,0
50.63715,5470.027,-80.76538,-15562.17,479.9765,-197.249,63.07443,1,0
50.687,5487.112,-96.19928,-15552.99,475.8103,-242.5165,71.25438,1,0
50.72022,5510.066,-66.67536,-15507.19,463.7534,-271.0435,103.1065,1,0
50.75345,5502.016,-77.0402,-15539.81,463.4082,-326.014,118.9531,1,0
50.75345,5484.654,-84.70354,-15532.7,467.599,-320.7917,122.2426,1,0
50.8033,5475.719,-82.54072,-15532.83,475.2516,-338.1893,133.3718,1,0
50.81991,5494.311,-67.33553,-15531.87,476.6737,-292.8379,105.0714,1,0
50.85315,5495.165,-79.85958,-15537.83,482.1845,-292.8934,50.81613,1,0
50.90298,5501.273,-53.77597,-15537.98,481.9509,-268.7325,47.44898,1,0
50.93622,5451.572,-40.30167,-15529.26,477.3207,-298.0999,50.65374,1,0
50.96946,5463.396,-60.89428,-15492.72,478.1986,-298.3178,42.82162,1,0
51.01929,5487.957,-31.09032,-15496.99,474.4299,-248.8036,68.65601,1,0
51.01929,5486.764,-19.27527,-15503.7,475.9753,-210.9076,87.52805,1,0
51.08575,5489.12,-10.18828,-15521.11,477.1548,-247.0802,75.54906,1,0
51.08575,5518.563,-35.34034,-15545.56,482.4828,-277.0072,63.24658,1,0
51.11899,5547.631,-32.36779,-15566.48,486.5436,-274.3848,43.80649,1,0
51.11899,5514.313,18.71574,-15581.32,480.7632,-302.2392,2.609982,1,0
51.16883,5516.402,-3.160039,-15614.75,476.3252,-377.4609,56.18707,1,0
51.20205,5531.199,15.53401,-15474,477.3573,-422.5878,25.99861,1,0
51.23529,5533.542,12.07344,-15410.71,482.5756,-394.1745,-103.4279,1,0
51.28513,5538.536,13.81626,-15486.63,486.5558,-293.4772,-175.5986,1,0
51.30175,5537.799,15.11009,-15578.12,485.1481,-385.282,-197.9604,1,0
51.31837,5503.881,0.5500367,-15571.63,484.0508,-361.7187,-161.9408,1,0
51.3516,5517.759,0.4749683,-15523.36,478.7638,-313.0332,-148.9096,1,0
51.38483,5512.813,11.49142,-15495.3,483.5757,-223.6351,-88.45045,1,0
51.41806,5517.839,-4.475118,-15478.34,469.5217,-267.5111,-91.26483,1,0
51.50114,5479.533,-0.07400499,-15530.84,476.506,-229.1485,-102.9273,1,0
51.50114,5462.425,-36.58655,-15592.1,468.5631,-191.8803,-59.03323,1,0
51.53437,5454.94,-3.529364,-15587.89,466.934,-214.5217,-42.7841,1,0
51.55098,5422.71,-7.018486,-15547.99,470.1421,-336.9751,-21.1587,1,0
51.58421,5404.839,37.95581,-15548.43,472.6137,-305.1312,-43.10618,1,0
51.61743,5424.583,22.44404,-15548.74,470.0836,-256.0367,-16.94085,1,0
51.61743,5460.886,-13.85987,-15616.53,477.0227,-325.1285,37.41423,1,0
51.65067,5465.46,-10.60466,-15560.79,473.4704,-396.2003,60.05149,1,0
51.6839,5472.316,10.7453,-15552.42,479.6182,-334.8581,112.6396,1,0
51.71712,5472.038,38.14359,-15553.74,475.4536,-361.9995,150.9354,1,0
51.76696,5492.885,45.73779,-15534.79,472.2658,-283.4627,246.8978,1,0
51.80017,5527.641,19.32239,-15579.01,478.6957,-300.6226,313.4165,1,0
51.80017,5546.379,42.26532,-15531.93,474.7494,-316.238,283.8731,1,0
51.83342,5573.864,43.12767,-15544.65,471.7302,-308.7555,340.9631,1,0
51.88327,5636.792,39.27172,-15545.54,473.8591,-290.5314,467.3326,1,0
51.89988,5662.467,41.78714,-15558.4,471.062,-292.3767,540.6927,1,0
51.9165,5670.657,56.93371,-15531.66,473.3618,-343.9259,523.4923,1,0
51.94973,5706.448,73.96535,-15502.36,479.5583,-389.6519,478.0402,1,0
51.98296,5715.675,90.19019,-15497.75,470.9986,-400.3523,436.0445,1,0
52.03279,5752.2,104.6587,-15516.49,468.886,-476.9991,471.8947,1,0
52.04941,5825.076,96.70913,-15440.05,462.8518,-523.6556,513.2984,1,0
52.09926,5871.357,83.80984,-15359.6,458.2598,-571.3549,531.4781,1,0
52.09926,5856.214,119.2273,-15358.24,454.7813,-558.8373,435.4966,1,0
52.14911,5889.385,138.3888,-15451.75,461.024,-521.8757,395.0041,1,0
52.18233,5925.167,133.991,-15449.28,461.3992,-503.9793,433.6814,1,0
52.21556,5942.96,138.1649,-15395.47,466.1419,-495.4835,468.3787,1,0
52.21556,5982.43,171.0602,-15350.1,469.7848,-500.5941,465.6295,1,0
52.29862,6014.071,191.539,-15326.8,472.5764,-438.0272,449.1982,1,0
52.31524,6045.228,199.1539,-15312.68,470.2782,-488.5905,447.559,1,0
52.33185,6027.241,190.2715,-15318.89,477.382,-577.1975,489.3991,1,0
52.36508,6075.85,226.4014,-15290.78,478.3745,-618.5755,536.2043,1,0
52.39831,6133.282,247.0753,-15286.29,474.6859,-696.2776,504.1944,1,0
52.44816,6138.665,301.3046,-15268.85,471.854,-632.4195,526.6006,1,0
52.44816,6199.504,316.8664,-15218.26,474.1165,-636.499,521.4066,1,0
52.48139,6216.304,352.6617,-15211.06,480.2744,-715.0481,473.5155,1,0
52.51462,6243.708,388.383,-15206.05,480.5381,-733.0297,534.5916,1,0
52.54785,6292.515,414.0231,-15222.64,471.8581,-676.9318,529.6978,1,0
52.58109,6318.876,440.7791,-15208.08,478.5077,-601.9452,493.436,1,0
52.63094,6319.183,440.6661,-15257.18,474.7231,-506.8833,484.2228,1,0
52.63094,6331.723,473.1913,-15285.11,471.8212,-496.6695,491.3268,1,0
52.66416,6379.136,508.5087,-15269.03,474.0335,-495.5044,490.1501,1,0
52.69739,6400.017,498.2815,-15228.16,475.7252,-535.0583,466.8632,1,0
52.73062,6402.806,509.7432,-15183.89,481.4456,-563.5993,499.276,1,0
52.73062,6434.995,552.2222,-15112.74,485.8061,-466.4942,595.5952,1,0
52.81368,6474.165,584.0438,-15107.56,489.1163,-439.5921,548.7037,1,0
52.81368,6528.611,598.8063,-15127.39,491.6159,-491.7055,531.8762,1,0
52.86353,6627.917,607.1597,-15188.45,493.4908,-513.6254,701.8041,1,0
52.88015,6678.311,619.4891,-15047.17,494.8852,-476.3695,668.428,1,0
52.92999,6676.803,631.5502,-14996.1,495.9106,-488.8876,593.8787,1,0
52.92999,6646.709,627.9068,-15005.33,492.2222,-430.3658,463.638,1,0
52.96323,6650.259,649.9514,-14994.19,493.798,-465.7559,460.8531,1,0
52.99646,6723.935,668.3846,-14944.2,499.4025,-462.4571,535.1723,1,0
53.02969,6774.75,680.7225,-14931,485.9243,-450.8637,538.7394,1,0
53.07952,6833.484,707.2337,-14904.97,475.5939,-450.1138,482.3165,1,0
53.11276,6821.773,733.4931,-14876.91,485.4238,-476.4958,434.6621,1,0
53.11276,6879.188,762.8591,-14891.62,484.0788,-495.8896,443.4103,1,0
53.14599,6948.475,743.6146,-14906.89,483.0433,-543.3965,429.6823,1,0
53.19584,7006.816,770.3215,-14847.17,477.8165,-584.3456,363.3234,1,0
53.22906,6983.598,786.7664,-14901.85,478.2553,-622.3994,396.401,1,0
53.24568,7016.601,816.4006,-14899.95,483.0308,-593.3517,451.5187,1,0
53.26229,7020.637,811.7895,-14866.88,477.8213,-546.5216,454.4119,1,0
53.29552,7056.838,824.2119,-14869.82,478.2726,-516.6637,406.7851,1,0
53.3786,7103.25,816.4502,-14807.23,478.6255,-499.0465,370.716,1,0
53.3786,7113.126,840.9242,-14802.05,465.6082,-465.6422,382.6259,1,0
53.39522,7153.79,834.666,-14834.16,477.8338,-449.0306,388.3059,1,0
53.44506,7153.747,839.268,-14832.66,482.7693,-456.9428,339.0652,1,0
53.46167,7163.594,824.5117,-14838.65,477.6795,-438.1863,329.5818,1,0
53.4949,7182.167,790.5675,-14779.43,482.6508,-377.1689,325.9005,1,0
53.52814,7193.038,847.2807,-14731.32,490.8825,-361.7526,389.8012,1,0
53.56136,7234.606,862.5158,-14752.73,483.8664,-389.028,382.3169,1,0
53.56136,7314.045,922.4213,-14782.97,482.9182,-438.6633,449.5227,1,0
53.62782,7347.023,961.0261,-14720.17,482.1877,-481.4713,404.813,1,0
53.64444,7272.413,951.1375,-14650.51,481.6256,-527.5301,267.8732,1,0
53.67767,7279.624,952.9221,-14689.83,490.0567,-440.5402,124.8887,1,0
53.74413,7302.997,941.5188,-14790.31,487.6287,-292.3236,55.69542,1,0
53.76075,7318.805,930.0474,-14788.89,490.1868,-327.4428,191.5759,1,0
53.79398,7358.748,944.0598,-14692.83,487.6948,-388.4526,223.2243,1,0
53.79398,7383.896,943.2359,-14654.13,485.7743,-376.8985,209.0277,1,0
53.81059,7428.729,932.1881,-14722.55,488.7278,-366.2987,135.0938,1,0
53.86044,7413.255,980.9392,-14752.05,482.1131,-383.0318,169.283,1,0
53.91028,7363.885,1015.563,-14713.99,485.9134,-456.0924,284.49,1,0
53.94351,7399.513,1030.451,-14629.82,479.9543,-519.4801,251.2297,1,0
53.97674,7448.116,1063.458,-14612.43,475.3995,-541.8015,192.9861,1,0
53.97674,7432.362,1075.949,-14649.52,471.9303,-537.6206,204.3656,1,0
54.00997,7474.875,1098.213,-14649.55,473.7308,-544.7421,233.0073,1,0
54.0432,7464.46,1127.94,-14587.94,479.5606,-470.5027,206.0998,1,0
54.09303,7504.433,1150.052,-14591.15,484.0294,-483.7073,124.2496,1,0
54.09303,7546.377,1146.377,-14599.63,487.4452,-619.5044,127.6318,1,0
54.15951,7535.498,1180.608,-14578.88,494.4782,-456.1331,105.9589,1,0
54.15951,7516.373,1175.133,-14563.47,486.54,-339.942,100.027,1,0
54.20934,7507.643,1163.677,-14490.11,480.4526,-287.8457,122.7562,1,0
54.24258,7508.042,1145.487,-14493.27,475.7973,-199.0778,71.80596,1,0
54.27581,7529.87,1139.94,-14622.58,476.6806,-212.0314,84.73938,1,0
54.27581,7580.273,1162.947,-14690.81,477.3705,-268.4661,223.2489,1,0
54.30904,7589.33,1174.553,-14551.47,477.9098,-205.7066,206.3666,1,0
54.35889,7595.549,1126.469,-14531.59,482.7632,-137.1096,66.10863,1,0
54.42534,7570.817,1088.211,-14582.15,486.4767,-243.6423,-7.933135,1,0
54.42534,7593.385,1088.606,-14655.49,484.8774,-337.4749,69.13679,1,0
54.45857,7604.512,1111.96,-14628.64,483.6458,-363.4577,174.4589,1,0
54.47519,7575.868,1139.558,-14561.71,491.5615,-331.8814,190.918,1,0
54.50842,7593.313,1133.796,-14520.72,484.3065,-236.6415,73.37781,1,0
54.54165,7592.859,1100.305,-14550.65,478.7476,-185.9302,119.3862,1,0
54.57488,7570.976,1085.559,-14627.03,483.3631,-300.691,231.7831,1,0
54.57488,7605.878,1097.396,-14622.45,482.4641,-383.717,288.1104,1,0
54.60811,7650.967,1084.148,-14601.32,477.3449,-454.4246,232.6934,1,0
54.65795,7684.942,1113.768,-14574.21,477.8688,-537.415,146.6948,1,0
54.69118,7679.338,1149.563,-14554.75,473.8492,-538.7859,203.937,1,0
54.72441,7664.524,1187.793,-14521.25,479.6534,-266.3669,260.2115,1,0
54.74103,7706.977,1184.608,-14546.85,475.2398,-145.5681,270.7462,1,0
54.75764,7722.305,1139.768,-14526.8,480.7377,-207.8811,259.5352,1,0
54.80748,7743.446,1131.839,-14474.04,480.5171,-401.0842,199.5832,1,0
54.84071,7731.354,1138.908,-14477.21,484.7809,-385.7829,201.332,1,0
54.87394,7757.021,1136.405,-14483.3,483.6056,-313.0684,93.01102,1,0
54.90717,7726.269,1145.421,-14435.1,478.269,-368.8331,100.3488,1,0
54.92378,7698.947,1155.488,-14414.1,483.0527,-417.8709,33.91999,1,0
54.99024,7724.193,1180.746,-14442.77,477.8488,-396.5594,48.24396,1,0
54.99024,7750.878,1194.322,-14516.01,478.3037,-446.8997,165.8874,1,0
55.04009,7798.563,1208.904,-14441.52,478.6588,-525.1243,155.7388,1,0
55.05671,7749.245,1206.51,-14327.2,478.9363,-363.9139,-52.77056,1,0
55.10655,7741.008,1183.384,-14378.7,470.2909,-169.3269,-238.192,1,0
55.10655,7709.987,1187.656,-14489.45,472.5584,-146.8337,-189.226,1,0
55.13979,7672.69,1227.307,-14451.42,478.744,-207.6716,-117.7143,1,0
55.17302,7691.62,1257.407,-14348.28,483.4826,-237.7022,-155.997,1,0
55.25608,7728.086,1235.824,-14363.92,491.5332,-119.9793,-145.9067,1,0
55.25608,7760.179,1224.588,-14492.6,488.8074,-63.31315,-60.61721,1,0
55.27271,7782.213,1185.865,-14598.94,486.7007,-196.1338,72.04733,1,0
55.27271,7782.112,1162.757,-14590.43,485.074,-410.8256,212.9577,1,0
55.32256,7757.325,1187.115,-14470.75,488.2509,-460.8573,234.6651,1,0
55.35578,7738.087,1234.47,-14342.68,486.2362,-245.1213,179.4675,1,0
55.40562,7746.422,1205.162,-14358.04,480.252,-105.3105,-2.594316,1,0
55.40562,7791.369,1214.722,-14420.01,488.9682,-91.81085,-104.9332,1,0
55.43873,7807.757,1209.715,-14469.87,486.7632,-212.9737,-108.6099,1,0
55.50522,7772.345,1222.377,-14490.39,493.927,-262.729,-45.06676,1,0
55.52193,7739.468,1206.448,-14466.24,494.9544,-233.0305,-42.39476,1,0
55.55517,7730.779,1198.583,-14394.64,486.8509,-196.2906,-135.6501,1,0
55.58839,7736.208,1205.78,-14496.25,493.9329,-225.416,-172.5357,1,0
55.62163,7735.822,1213.419,-14615.02,490.4697,-271.9362,-71.4794,1,0
55.62163,7716.59,1219.167,-14550.58,492.2354,-237.7717,3.37758,1,0
55.67147,7727.291,1183.579,-14524.37,493.5702,-201.4526,58.8131,1,0
55.73794,7737.625,1177.359,-14564.06,490.1415,-260.775,35.82097,1,0
55.73794,7754.304,1167.055,-14581,487.506,-319.7873,45.3379,1,0
55.77117,7773.592,1162.51,-14527.33,494.347,-301.7053,72.80155,1,0
55.78778,7797.055,1179.003,-14567.05,495.1346,-231.5661,161.0257,1,0
55.8044,7807.051,1165.035,-14472.15,491.2861,-272.9532,133.8305,1,0
55.85425,7767.951,1134.423,-14476.02,492.7606,-247.8622,-4.092078,1,0
55.88748,7753.4,1131.02,-14512.3,485.0142,-179.13,-47.82434,1,0
55.92071,7742.179,1105.249,-14485.79,483.5203,-195.1233,-37.8937,1,0
55.92071,7740.185,1092.318,-14432.3,486.8171,-253.7847,-50.60782,1,0
55.97055,7739.725,1111.396,-14429.2,484.9112,-294.0092,-52.66847,1,0
56.00378,7753.736,1113.939,-14486.82,492.3199,-196.7769,-24.42175,1,0
56.03701,7727.838,1108.24,-14515.45,493.549,-109.7417,-53.08549,1,0
56.12009,7760.071,1095.129,-14526.26,485.6131,-114.9057,-138.5572,1,0
56.12009,7764.731,1116.25,-14586.54,488.4042,-208.0823,-136.3352,1,0
56.13671,7753.812,1125.858,-14547.19,494.9706,-304.9886,-31.26562,1,0
56.13671,7730.993,1098.928,-14492.59,495.5499,-225.3285,-60.13641,1,0
56.21978,7736.786,1105.011,-14506.21,491.5445,-139.4524,-155.7736,1,0
56.2364,7737.886,1109.764,-14535.48,488.4703,-174.4771,-190.1487,1,0
56.26962,7745.361,1115.698,-14541.2,477.2544,-270.1289,-190.5706,1,0
56.26962,7747.73,1120.301,-14567.66,477.556,-220.0395,-114.889,1,0
56.30285,7747.293,1097.285,-14560.09,482.243,-193.079,-112.135,1,0
56.3693,7725.878,1098.592,-14516.52,485.8441,-268.3603,-116.2185,1,0
56.41915,7716.148,1124.053,-14495.34,488.6045,-288.5297,-144.9241,1,0
56.45238,7672.183,1125.848,-14523.48,499.5769,-252.0555,-173.8689,1,0
56.45238,7638.663,1115.055,-14570.49,503.5178,-238.2177,-96.59166,1,0
56.53545,7615.429,1084.678,-14566.48,493.2044,-310.4313,-92.16558,1,0
56.53545,7653.288,1112.49,-14511.22,494.1592,-315.4257,-128.5815,1,0
56.55208,7678,1122.748,-14546.48,486.0156,-236.2682,-150.4908,1,0
56.55208,7656.021,1112.891,-14588.93,488.6502,-231.0723,-76.50198,1,0
56.60192,7633.788,1100.949,-14584.72,477.3748,-248.7314,-4.879154,1,0
56.66837,7628.022,1088.544,-14544.79,473.2003,-265.5677,7.155227,1,0
56.68499,7648.163,1101.291,-14575.11,470.04,-312.7532,18.96315,1,0
56.70161,7708.022,1114.428,-14611.52,472.093,-335.4318,141.637,1,0
56.70161,7697.335,1172.142,-14579.38,482.5618,-403.8301,236.4775,1,0
56.75146,7617.148,1176.333,-14459.41,486.1542,-352.2688,210.1048,1,0
56.81791,7590.285,1134,-14451.92,488.9035,-253.5863,71.63333,1,0
56.83452,7635.322,1123.727,-14513.97,491.0009,-155.3502,45.1555,1,0
56.86775,7632.268,1121.411,-14543.79,483.732,-235.49,51.60775,1,0
56.86775,7662.182,1142.917,-14580.99,487.0344,-452.2834,56.12554,1,0
56.93419,7697.321,1175.964,-14481.95,498.4229,-381.307,14.84728,1,0
56.96743,7685.415,1144.657,-14464.96,498.2511,-175.7589,-48.92769,1,0
56.98404,7679.615,1101.82,-14485.33,484.7985,-168.1648,-91.27822,1,0
57.01728,7691.797,1101.217,-14556.42,496.6601,-229.6165,-69.21719,1,0
57.01728,7697.779,1132.951,-14570.9,487.9952,-205.0239,19.27062,1,0
57.05051,7682.383,1121.789,-14544.21,494.6535,-196.5791,62.0239,1,0
57.08374,7667.273,1089.995,-14487.18,490.873,-195.8026,60.79867,1,0
57.13358,7669.037,1054.663,-14476.84,501.2654,-159.9025,-30.03235,1,0
57.16681,7684.82,1042.182,-14520.01,500.3296,-220.7058,-57.97445,1,0
57.20005,7703.545,1073.803,-14539.78,495.1549,-336.8421,-80.07355,1,0
57.20005,7708.97,1126.923,-14546.01,491.1796,-404.504,-76.328,1,0
57.23328,7679.828,1113.287,-14507.54,483.7016,-245.1888,-73.58317,1,0
57.26651,7649.771,1088.451,-14513.57,486.8532,-158.6867,-74.38918,1,0
57.31636,7657.857,1067.283,-14540.37,484.8418,-263.2931,-163.2209,1,0
57.39942,7678.508,1068.912,-14577.47,483.3128,-322.8722,-216.224,1,0
57.39942,7674.387,1097.955,-14652.28,486.5874,-202.1574,-136.7216,1,0
57.41605,7646.875,1053.753,-14676.03,484.669,-264.121,-35.18189,1,0
57.46589,7659.123,1057.703,-14549.87,478.7787,-447.8043,-80.42368,1,0
57.49912,7646.392,1064.164,-14494.24,483.1542,-395.7882,-124.3966,1,0
57.49912,7641.149,1060.342,-14540.39,482.0848,-234.6239,-101.6606,1,0
57.54896,7620.6,1056.403,-14542.49,476.8482,-217.1083,-66.68353,1,0
57.54896,7607.208,1096.692,-14551.85,490.5886,-372.2114,-70.33581,1,0
57.56556,7683.514,1099.844,-14609.94,483.3758,-456.9379,34.91625,1,0
57.61543,7687.62,1156.532,-14598.88,486.7241,-510.0228,98.39869,1,0
57.64865,7632.005,1148.835,-14522.7,489.2882,-431.5979,-31.7032,1,0
57.64865,7626.067,1140.61,-14539.76,491.2457,-277.3413,-87.58801,1,0
57.76497,7637.128,1091.017,-14592.72,488.3032,-228.2524,9.037228,1,0
57.76497,7645.663,1140.593,-14604.36,481.6163,-244.2937,41.35387,1,0
57.7982,7654.456,1158.525,-14540.03,485.3721,-284.6774,21.59044,1,0
57.7982,7660.101,1158.837,-14496.33,488.2516,-216.4763,-67.90338,1,0
57.84789,7677.72,1144.556,-14520.61,486.0219,-217.0621,-121.6678,1,0
57.88127,7616.951,1124.68,-14539.27,488.7481,-188.3284,-126.349,0,0
57.88127,7629.243,1119.405,-14576.84,499.6936,-166.0063,-90.67815,0,0
57.9145,7617.681,1106.49,-14529.09,499.1819,-258.8604,-94.5518,0,0
57.94773,7628.864,1120.992,-14534.67,494.3316,-347.7206,-188.7998,0,0
57.98096,7625.307,1157.559,-14565.57,490.6035,-205.1015,-208.5686,0,0
58.01419,7609.359,1106.801,-14550.4,492.1756,-32.37276,-112.5666,0,0
58.06404,7650.427,1007.031,-14627.4,493.3713,-186.7794,-83.53728,0,0
58.06404,7679.657,989.6096,-14610.85,489.8452,-304.9056,-78.16853,0,0
58.09726,7667.627,1014.222,-14613.54,491.575,-327.3857,-152.6915,0,0
58.13049,7655.056,990.075,-14638.72,492.894,-368.2539,-121.7634,0,0
58.18034,7608.869,1021.694,-14638.98,498.3268,-305.6863,-60.02768,0,0
58.18034,7636.753,1048.289,-14666.7,502.4659,-209.2241,-37.72347,0,0
58.2468,7623.795,1043.268,-14635.62,501.1745,-264.2919,-34.58446,0,0
58.28004,7596.211,1032.878,-14589.51,500.1609,-425.5533,-74.64851,0,0
58.28004,7601.801,1085.974,-14574.12,494.9327,-436.2118,-119.4435,0,0
58.32988,7606.186,1095.598,-14573.42,486.4909,-385.8325,-109.8721,0,0
58.36311,7621.816,1069.699,-14572.89,488.9025,-361.9728,-131.8167,0,0
58.39634,7579.548,1076.485,-14592.43,490.7557,-215.5822,-84.51283,0,0
58.42956,7571.699,1063.968,-14584.09,487.7454,-82.63065,-112.257,0,0
58.44619,7592.431,1062.179,-14592.1,485.4493,-149.7094,-129.8237,0,0
58.4628,7642.743,1071.93,-14724.48,488.1362,-424.8772,-54.53597,0,0
58.52927,7568.242,1104.893,-14607.26,494.6316,-569.8467,16.33401,0,0
58.54588,7577.816,1085.758,-14595,490.7335,-500.419,45.16072,0,0
58.59573,7513.258,1079.956,-14561.23,487.7494,-406.3382,36.75459,0,0
58.59573,7531.668,1098.778,-14607.44,485.4722,-455.0938,-73.23956,0,0
58.62896,7498.336,1133.088,-14580.73,488.1725,-348.6272,-18.96517,0,0
58.66219,7556.175,1129.325,-14633.42,494.6769,-172.5998,-47.03165,0,0
58.69542,7552.948,1130.768,-14642.63,495.2159,-253.0865,-112.04,0,0
58.69542,7584.942,1100.751,-14630.73,504.4802,-251.1609,-181.0834,0,0
58.74526,7557.413,1113.189,-14632.6,498.2479,-234.8724,-226.4716,0,0
58.81172,7527.575,1150.353,-14686.02,493.4601,-263.0074,-182.7554,0,0
58.81172,7527.053,1191.962,-14694.58,489.7907,-245.8729,-118.5722,0,0
58.84494,7534.568,1141.614,-14677.65,486.9865,-264.1796,-63.80941,0,0
58.89479,7522.73,1141.736,-14655.66,480.4199,-271.0766,-112.2194,0,0
58.9114,7506.066,1121.795,-14685.24,479.8499,-222.4115,-175.2575,0,0
58.92802,7516.756,1085.438,-14683.35,479.4401,-225.2016,-198.668,0,0
58.96125,7539.492,1039.921,-14718.3,488.0148,-275.6831,-133.255,0,0
58.99448,7524.861,1073.907,-14697.2,481.2911,-370.5847,-99.42528,0,0
59.07755,7506.021,1055.681,-14683.09,485.0253,-280.48,-49.42887,0,0
59.07755,7486.212,1051.799,-14698.75,479.0321,-222.0366,-104.8767,0,0
59.09416,7474.561,1078.844,-14724.99,478.8981,-284.9066,-191.35,0,0
59.1111,7479.144,1104.021,-14710.52,492.1118,-344.1281,-198.0721,0,0
59.14433,7469.547,1105.548,-14679.35,493.3572,-284.6494,-136.5248,0,0
59.19423,7465.723,1116.661,-14698.6,489.8672,-196.7456,-140.0131,0,0
59.21086,7475.179,1077.482,-14686.64,491.6227,-215.2363,-163.1066,0,0
59.26075,7452.673,1046.418,-14702.87,492.9596,-284.6721,-217.5011,0,0
59.26075,7409.063,1041.581,-14704.1,498.4044,-325.9199,-201.2997,0,0
59.34386,7374.863,1065.693,-14669.48,498.1197,-306.1598,-203.3799,0,0
59.34386,7323.563,1089.75,-14647.37,502.3123,-285.1592,-242.174,0,0
59.37711,7308.013,1064.962,-14720.2,492.1996,-257.9996,-336.4163,0,0
59.41036,7350.867,1085.918,-14752.56,497.7463,-292.103,-294.8263,0,0
59.44361,7343.041,1082.026,-14670.77,497.5455,-364.4453,-383.6565,0,0
59.49347,7279.791,1075.734,-14589.3,492.9452,-296.9559,-618.1313,0,0
59.50999,7230.732,1074.265,-14703.24,493.8506,-69.67133,-778.0416,0,0
59.50999,7240.265,1043.257,-14815.87,498.9695,95.80794,-739.5696,0,0
59.55999,7164.994,1028.477,-14839.72,507.303,54.6289,-702.2432,0,0
59.60986,7114.671,1066.032,-14832.1,504.7853,-100.0513,-715.5248,0,0
59.6431,7099.042,1066.018,-14872.44,502.8294,-190.2918,-638.5254,0,0
59.67635,7042.399,1071.578,-14836.43,501.3098,-48.7244,-561.3227,0,0
59.67635,6985.462,1013.814,-14815.18,491.2668,38.47493,-581.956,0,0
59.70959,6970.485,965.3058,-14875.09,496.8782,77.2147,-565.8731,0,0
59.74284,6957.711,971.6269,-14939.42,496.7376,53.58857,-535.0413,0,0
59.79272,6906.722,953.4328,-14962.68,496.6245,-37.63801,-410.2099,0,0
59.79272,6881.934,923.1448,-15005.43,492.1019,-116.6784,-445.8081,0,0
59.85922,6828.469,912.4569,-14963.33,493.0764,-80.9405,-510.5576,0,0
59.87584,6817.374,883.5503,-14995.98,489.3949,-47.95859,-551.2333,0,0
59.89247,6814.316,862.9003,-14992.76,491.0193,-53.43488,-449.3224,0,0
59.94233,6767.513,859.6786,-14996.44,496.7018,-38.20244,-424.0553,0,0
59.97559,6742.664,839.876,-14993.25,492.1841,-171.6455,-360.0545,0,0
60.00883,6725.762,842.8527,-15025.82,488.7297,-243.5639,-380.6549,0,0
60.00883,6709.392,846.624,-15044.73,490.5285,-252.974,-341.3522,0,0
60.0587,6683.441,881.9921,-15093.04,483.0511,-252.7318,-311.3864,0,0
60.09195,6645.73,894.9221,-15050.78,486.2131,-211.6022,-330.7306,0,0
60.12519,6637.821,891.7346,-15043.44,488.6504,-213.7758,-358.6946,0,0
60.15845,6605.059,867.3394,-15117.17,486.0948,-218.6434,-416.1718,0,0
60.19169,6574.336,852.2321,-15103.25,488.5842,-298.9611,-364.0013,0,0
60.20832,6570.672,847.5817,-15107.6,486.0674,-239.4005,-204.7384,0,0
60.24157,6575.493,852.0421,-15097.15,484.1539,-222.4479,-274.5905,0,0
60.27482,6511.412,810.2784,-15140.78,491.5688,-190.5333,-426.3524,0,0
60.30806,6532.044,786.3816,-15247.9,488.3828,-253.593,-351.5986,0,0
60.32469,6500.008,803.8991,-15169.65,490.3811,-313.6178,-242.3405,0,0
60.35794,6456.471,812.0765,-15042.75,487.4815,-267.6057,-352.2985,0,0
60.42444,6419.69,787.5865,-15011.87,485.2694,-140.5277,-551.7308,0,0
60.42444,6411.377,740.342,-15114.42,492.4512,13.69141,-559.9715,0,0
60.45769,6358.358,709.0037,-15181.52,489.0831,-3.316664,-419.3305,0,0
60.50756,6345.401,727.5618,-15162.63,482.0764,-64.402,-366.6709,0,0
60.54081,6346.475,695.6315,-15137.79,490.0251,-11.45312,-406.7106,0,0
60.54081,6324.998,679.3792,-15126.2,487.2489,-13.65319,-312.688,0,0
60.59068,6327.24,630.8331,-15168,489.561,-58.88564,-310.6608,0,0
60.60731,6296.626,618.5791,-15196.32,482.4696,-187.6233,-348.3276,0,0
60.65718,6225.368,614.1721,-15226.46,485.9198,-301.0516,-356.1905,0,0
60.69043,6176.28,633.4783,-15220.27,488.5699,-272.3265,-354.2268,0,0
60.72368,6241.714,636.5248,-15246.13,490.6006,-232.0537,-322.8619,0,0
60.75694,6290.485,610.4718,-15289.85,492.1523,-302.693,-256.3166,0,0
60.77356,6252.111,583.2244,-15270.72,497.7648,-392.738,-193.4497,0,0
60.8068,6236.793,570.6111,-15265.59,502.0424,-318.2585,-309.1207,0,0
60.84005,6198.133,583.6069,-15304.44,505.289,-316.5833,-370.1036,0,0
60.87329,6164.914,586.2422,-15311.53,507.74,-242.447,-381.5834,0,0
60.87329,6143.649,565.4044,-15345.29,505.1466,-109.4196,-292.5429,0,0
60.95643,6134.864,545.4529,-15348.45,507.5616,-159.8289,-249.7161,0,0
60.95643,6115.667,553.8983,-15327.09,509.3763,-319.8214,-358.965,0,0
60.98967,6085.175,566.3166,-15309.2,510.7288,-294.4164,-302.171,0,0
61.02293,6048.277,600.5571,-15284.05,511.7263,-182.2433,-188.9979,0,0
61.05571,6055.256,593.7996,-15311.04,508.0206,-165.9276,-179.149,0,0
61.10559,6051.455,603.2873,-15350.21,505.1558,-146.6064,-184.1651,0,0
61.10559,6028.283,593.0505,-15362.06,498.5119,-47.75482,-178.3744,0,0
61.1388,5993.615,587.663,-15368.51,497.8538,27.29526,-141.3171,0,0
61.17204,5967.906,574.9104,-15345.34,492.9181,-57.2826,-215.8176,0,0
61.22189,5985.629,559.8589,-15409.25,493.5812,-204.3124,-242.6014,0,0
61.255,6008.824,561.9016,-15339.19,489.6669,-269.7365,-180.43,0,0
61.28836,5976.289,572.5819,-15168.96,486.6874,-252.8607,-229.474,0,0
61.28836,5911.092,586.513,-15217.12,488.8613,-145.3258,-286.2742,0,0
61.33821,5854.237,514.2638,-15369.23,490.5432,-245.8669,-348.5938,0,0
61.37145,5829.338,543.4676,-15437.73,482.981,-232.9668,-349.3542,0,0
61.40469,5847.748,501.8197,-15411.05,490.514,-161.2165,-288.8613,0,0
61.40469,5850.481,497.9541,-15394.66,496.2922,-90.00147,-205.9905,0,0
61.45454,5819.003,474.2658,-15386.21,496.2812,-89.15376,-87.07192,0,0
61.50439,5804.565,438.7611,-15417.12,496.2689,-155.7458,-211.9583,0,0
61.52101,5800.949,431.9385,-15423.82,496.2559,-106.2502,-254.2823,0,0
61.55424,5787.859,433.7766,-15511.69,496.2425,-188.435,-232.4488,0,0
61.58748,5775.258,434.4641,-15486.49,491.7979,-268.2166,-183.4189,0,0
61.62071,5767.451,484.0984,-15419.11,501.6959,-203.3409,-130.5703,0,0
61.63733,5756.646,453.6457,-15428.19,495.9647,-273.8015,-177.6609,0,0
61.67057,5753.502,432.8299,-15504.67,496.0057,-289.8621,-193.134,0,0
61.70381,5731.82,452.6608,-15522.91,491.6041,-173.1264,-118.159,0,0
61.73705,5757.995,427.1111,-15479.93,492.6737,-182.1004,-105.3738,0,0
61.77028,5722.12,436.6519,-15499.87,493.4984,-241.3324,-155.7292,0,0
61.82013,5711.901,449.7581,-15510.35,498.5645,-213.1692,-56.27324,0,0
61.82013,5689.19,451.1471,-15478.14,506.866,-140.8716,-143.3795,0,0
61.83675,5645.854,441.3333,-15504.17,504.332,-79.82124,-171.7621,0,0
61.8866,5678.742,425.1693,-15478.36,497.94,56.94921,-76.72536,0,0
