Time,Ax,Ay,Az,Gx,Gy,Gz,Breathing,Ground Truth
9.586675,0,0,0,0,0,0,0,0
9.586675,-9613.896,-328.2207,1282.609,-817.9512,109.896,358.3622,0,0
9.586675,-14925.09,-819.4752,1662.984,-1527.057,25.16033,143.8003,0,0
9.752539,-17539.64,-1081.656,1892.164,-1872.396,-147.0287,186.0558,0,0
9.769125,-18625.45,-1159.421,2018.485,-2020.97,-180.656,166.9733,0,0
9.785711,-18865.25,-1237.543,1998.426,-2068.845,-219.6351,212.3596,0,0
9.802296,-18917.67,-1232.033,1934.259,-2088.587,-203.8515,185.9474,0,0
9.81888,-18896.84,-1252.51,1863.218,-2085.98,-205.9729,210.8251,0,0
9.81888,-18957.88,-1284.394,1829.993,-2091.051,-205.3109,193.5921,0,0
9.81888,-18784.49,-1225.237,1812.911,-2091.84,-217.4982,178.4388,0,0
9.81888,-18869.11,-1265.129,1812.8,-2080.878,-222.1408,177.0593,0,0
9.81888,-18766.52,-1236.439,1764.095,-2081.378,-193.7138,120.97,0,0
9.81888,-18794.95,-1215.915,1830.26,-2080.658,-204.1224,143.0904,0,0
9.835467,-18760.04,-1226.826,1837.462,-2078.699,-209.5355,155.8647,0,0
9.852056,-18741.56,-1245.314,1802.768,-2075.24,-236.1194,190.3818,0,0
9.885223,-18733.43,-1280.621,1863.426,-2061.574,-267.1332,304.8653,0,0
9.885223,-18696,-1332.661,1825.832,-2047.824,-231.2945,250.0465,0,0
9.918399,-18724.89,-1376.454,1836.2,-2041.885,-235.6332,290.3451,0,0
9.951569,-18556.08,-1336.2,1802.138,-2024.751,-216.3012,236.6992,0,0
9.96815,-18414.85,-1284.627,1809.324,-2007.316,-263.1102,268.8978,0,0
10.00133,-18297.05,-1251.363,1803.404,-1985.403,-262.9408,242.748,0,0
10.00133,-18200.35,-1210.785,1790.594,-1968.966,-241.8907,217.9518,0,0
10.05108,-18026.44,-1190.128,1773.657,-1957.096,-224.7905,231.4214,0,0
10.05108,-17931.28,-1208.436,1730.45,-1940.226,-172.7208,196.7792,0,0
10.06766,-17749.33,-1185.907,1719.393,-1928.692,-169.9521,205.5539,0,0
10.11742,-17658.68,-1186.701,1732.103,-1912.645,-193.5252,253.5254,0,0
10.11742,-17600.97,-1243.384,1692.96,-1906.754,-230.3305,300.4962,0,0
10.15093,-17506.54,-1259.334,1704.465,-1891.029,-245.4815,303.4055,0,0
10.15093,-17438.83,-1267.574,1690.204,-1876.887,-271.6138,330.7316,0,0
10.1841,-17333.81,-1263.341,1676.35,-1864.127,-336.4027,410.538,0,0
10.1841,-17279.15,-1191.94,1718.415,-1852.573,-290.3976,324.2267,0,0
10.23387,-17154.01,-1156.033,1672.201,-1842.071,-262.5444,345.0705,0,0
10.25047,-17148.97,-1159.606,1617.437,-1836.927,-211.2452,312.4788,0,0
10.25047,-17118.9,-1173.468,1548.533,-1840.407,-164.0589,256.0087,0,0
10.30023,-17086.96,-1158.667,1550.973,-1828.399,-107.133,188.6008,0,0
10.33341,-17080.77,-1158.573,1576.996,-1817.93,-63.39105,226.2156,0,0
10.34987,-17010.64,-1170.895,1516.925,-1804.303,-50.61292,242.5056,0,0
10.38319,-16898.86,-1148.447,1522.872,-1797.213,-81.782,224.702,0,0
10.38319,-16862.2,-1157.059,1586.004,-1795.202,-103.0657,219.8597,0,0
10.41636,-16881.35,-1175.082,1568.753,-1788.282,-82.40391,178.7071,0,0
10.44954,-16856.09,-1146.044,1512.149,-1782.102,-78.12934,198.9877,0,0
10.44954,-16836.02,-1094.365,1408.936,-1772.121,-56.791,176.8131,0,0
10.48272,-16826.96,-1085.321,1365.538,-1768.16,-70.34589,246.5012,0,0
10.5159,-16834.44,-1092.358,1411.239,-1764.428,-72.09698,289.431,0,0
10.53249,-16799.48,-1138.306,1454.149,-1760.921,-88.90137,392.3532,0,0
10.56567,-16739.05,-1185.16,1448.283,-1757.63,-122.4575,424.0969,0,0
10.63202,-16688.33,-1157.293,1437.205,-1754.547,-161.5647,500.1494,0,0
10.64861,-16590.03,-1109.978,1383.384,-1751.661,-130.89,435.205,0,0
10.68179,-16557.68,-1082.254,1381.156,-1744.53,-98.38416,383.5125,0,0
10.68179,-16625.95,-1109.499,1345.307,-1747.489,-50.99133,341.8297,0,0
10.71497,-16611.77,-1136.686,1247.231,-1749.328,-4.225531,264.1602,0,0
10.74815,-16574.55,-1153.812,1288.95,-1741.466,-23.41019,264.0904,0,0
10.74815,-16570.92,-1156.566,1269.192,-1739.511,-5.796955,185.5066,0,0
10.78133,-16495.67,-1128.391,1302.091,-1733.242,-15.43509,141.9807,0,0
10.8145,-16476.71,-1146.414,1335.329,-1732.566,-12.12049,129.5389,0,0
10.86427,-16473.32,-1197.567,1364.3,-1727.329,-34.06293,179.9559,0,0
10.88086,-16540.7,-1264.013,1325.67,-1727.49,-86.64131,231.2795,0,0
10.93062,-16519.31,-1279.998,1287.432,-1736.23,-145.1018,272.3601,0,0
10.96381,-16453.38,-1249.582,1245.142,-1724.945,-191.8686,259.5197,0,0
10.98039,-16519.78,-1234.701,1241.93,-1724.954,-217.6734,254.9958,0,0
11.06334,-16527.92,-1178.6,1312.939,-1729.192,-222.9525,344.9185,0,0
11.07993,-16402.89,-1067.829,1308.763,-1727.806,-158.517,346.3105,0,0
11.07993,-16412.26,-1032.9,1263.635,-1717.699,-122.2972,366.6061,0,0
11.16287,-16481.37,-1096.006,1239.316,-1723.102,-119.9637,422.3851,0,0
11.19606,-16513.04,-1123.239,1257.559,-1718.222,-83.76546,445.1136,0,0
11.19606,-16442.93,-1095.247,1240.756,-1718.782,-38.62092,456.6237,0,0
11.22923,-16354.95,-1115.882,1213.762,-1719.083,13.5446,385.5901,0,0
11.24581,-16368.76,-1158.193,1236.619,-1719.191,24.16439,388.0793,0,0
11.26241,-16448.35,-1239.162,1220.028,-1714.727,12.37745,401.725,0,0
11.31217,-16406.43,-1275.325,1112.328,-1711.21,-2.953401,290.1228,0,0
11.34535,-16406.79,-1254.958,1058.074,-1704.001,-94.06474,284.5152,0,0
11.36194,-16494.96,-1255.63,1065.891,-1698.419,-72.37318,217.4458,0,0
11.37853,-16413.11,-1213.717,1111.213,-1694.099,-19.20026,104.3005,0,0
11.4283,-16414.04,-1199.136,1113.105,-1695.189,-13.50231,113.4386,0,0
11.46147,-16395.29,-1242.087,1058.452,-1700.42,-23.11427,50.2648,0,0
11.49465,-16379.27,-1210.462,1052.558,-1704.382,-61.86697,63.95296,0,0
11.54441,-16428.57,-1207.125,1081.768,-1711.795,-32.54897,24.81789,0,0
11.57758,-16388.21,-1188.907,1145.516,-1712.974,12.81714,-8.448389,0,0
11.61077,-16370.15,-1201.445,1187.901,-1709.38,55.96585,-26.09599,0,0
11.61077,-16398.04,-1249.693,1213.814,-1706.575,154.9298,-185.4853,0,0
11.64395,-16350.3,-1272.002,1189.383,-1699.952,172.3367,-196.6051,0,0
11.72689,-16300.17,-1275.518,1170.771,-1699.287,120.3577,-161.2457,0,0
11.72689,-16302.62,-1221.446,1219.799,-1707.618,86.57813,-151.3634,0,0
11.76005,-16338.7,-1181.028,1227.439,-1709.525,90.09737,-143.6094,0,0
11.79325,-16296.31,-1182.187,1258.759,-1706.511,59.59067,-98.21758,0,0
11.82642,-16341.29,-1190.808,1287.09,-1699.738,-24.85557,15.72851,0,0
11.87619,-16354.47,-1191.829,1217.797,-1703.399,-69.80083,-3.968562,0,0
11.87619,-16315.59,-1098.406,1251.177,-1706.178,-137.5711,42.42454,0,0
11.90937,-16338.87,-1006.008,1430.667,-1708.278,-125.7331,133.2045,0,0
11.95914,-16336.58,-1006.551,1456.844,-1714.285,-26.9512,170.231,0,0
11.99231,-16274.85,-1068.266,1371.134,-1714.408,9.648582,205.0654,0,0
12.02549,-16311.77,-1127.908,1287.501,-1705.598,-28.59313,311.8167,0,0
12.09185,-16388.69,-1232.339,1222.29,-1707.695,-62.28548,316.9166,0,0
12.10844,-16282.26,-1222.368,1189.067,-1700.416,-143.6515,344.7302,0,0
12.12503,-16318.2,-1216.782,1220.294,-1708.131,-213.1438,348.6297,0,0
12.1748,-16275.83,-1144.785,1244.286,-1700.723,-226.0367,299.895,0,0
12.1748,-16291.05,-1104.093,1316.961,-1695.046,-260.6689,349.7539,0,0
12.20798,-16298.26,-1089.683,1324.82,-1690.709,-237.6661,273.6624,0,0
12.24116,-16269.4,-1068.835,1295.225,-1687.409,-253.9774,251.9982,0,0
12.25775,-16331.53,-999.8948,1297.96,-1689.339,-251.0785,189.8187,0,0
12.3241,-16318.06,-935.272,1305.509,-1686.406,-198.0516,111.4525,0,0
12.3241,-16332.05,-908.431,1290.141,-1697.481,-176.0281,209.76,0,0
12.35728,-16380.32,-912.7717,1210.743,-1697.097,-136.2675,209.0787,0,0
12.39046,-16302.96,-916.577,1189.963,-1705.664,-121.8039,170.8269,0,0
12.44022,-16299.1,-922.1522,1260.639,-1698.91,-151.9514,189.48,0,0
12.47339,-16388.09,-972.2488,1266.011,-1693.734,-151.9357,177.4361,0,0
12.52316,-16406.16,-975.424,1249.063,-1698.643,-164.0032,198.969,0,0
12.55634,-16307.86,-955.9427,1217.28,-1706.829,-164.5287,110.4534,0,0
12.62269,-16250.31,-914.715,1227.388,-1704.213,-176.9938,105.1653,0,0
12.63928,-16337.11,-917.848,1221.906,-1697.763,-158.4203,97.69261,0,0
12.65587,-16407.92,-921.6863,1244.377,-1697.256,-144.6589,155.0233,0,0
12.65587,-16417.58,-929.3604,1219.509,-1701.302,-124.9268,163.2327,0,0
12.70564,-16366.02,-938.8285,1167.315,-1691.099,-141.6616,175.9049,0,0
12.73881,-16375.16,-879.8412,1156.353,-1683.303,-174.6477,212.4577,0,0
12.73881,-16400.87,-840.5724,1237.907,-1686.231,-157.4104,239.2378,0,0
12.77199,-16475.76,-864.111,1235.002,-1684.068,-131.3988,305.2816,0,0
12.80517,-16430.83,-909.0736,1177.403,-1686.872,-114.5208,318.156,0,0
12.85493,-16403.96,-973.6375,1143.422,-1680.178,-123.2327,327.14,0,0
12.88811,-16350,-947.8026,1179.664,-1675.088,-83.66294,241.1935,0,0
12.92129,-16357.41,-907.0902,1225.264,-1688.962,-55.13019,232.6123,0,0
12.95447,-16378.57,-876.1246,1273.484,-1695.164,6.155374,237.3212,0,0
12.97106,-16374.75,-914.7213,1185.12,-1682.184,60.25692,249.9839,0,0
13.03741,-16370.65,-957.7313,1130.863,-1681.133,68.58805,208.6127,0,0
13.07059,-16330.91,-980.7454,1085.122,-1680.356,39.38369,171.3923,0,0
13.07059,-16288.34,-927.4619,1125.758,-1675.358,18.91924,83.43334,0,0
13.10377,-16371.09,-928.8807,1174.812,-1671.568,41.21694,57.91545,0,0
13.15354,-16423.32,-934.5093,1235.722,-1668.712,131.3913,73.60612,0,0
13.18671,-16361.22,-915.6467,1287.836,-1675.436,253.6771,66.7886,0,0
13.18671,-16289.27,-849.2679,1295.43,-1685.047,358.7444,144.1016,0,0
13.21989,-16246.51,-809.8015,1412.941,-1679.117,448.2044,479.2229,0,0
13.25307,-16159.73,-887.3991,1752.822,-1683.46,829.0936,551.761,0,0
13.30284,-15786.86,-713.2234,2111.529,-1682.361,1507.617,508.1321,0,0
13.33602,-15505.97,-912.7599,1825.83,-1690.393,1607.715,1539.179,0,0
13.33602,-15733.69,-1268.328,1181.549,-1687.672,1109.223,2450.163,0,0
13.40237,-16503.09,-1836.684,863.625,-1685.586,1002.629,2386.797,0,0
13.43554,-16813.5,-2317.409,332.1552,-1692.854,1012.032,2014.562,0,0
13.45213,-16337.51,-2244.792,217.7578,-1685.11,1036.66,1671.737,0,0
13.48532,-16216.61,-2204.137,404.0219,-1683.617,1421.385,1574.833,0,0
13.56826,-16128.63,-2382.073,533.0008,-1678.05,2291.773,1462.765,0,0
13.60143,-16406.13,-2640.692,465.937,-1678.24,3324.111,876.6854,0,0
13.60143,-16431.07,-2863.145,270.9985,-1669.542,3948.161,-110.1806,0,0
13.63461,-16309.1,-2830.459,371.7954,-1667.351,3493.532,-602.5627,0,0
13.63461,-16377.39,-2652.544,522.5486,-1674.578,2847.307,-523.3403,0,0
13.66779,-16268.82,-2593.353,649.0708,-1671.272,2042.412,-266.0327,0,0
13.70096,-16246.68,-2820.333,679.13,-1668.769,1272.438,-107.156,0,0
13.75073,-16233.15,-2865.005,475.6902,-1675.748,192.4427,-217.7262,0,0
13.78391,-16240.64,-2715.854,513.7671,-1672.244,-561.5312,-415.6208,0,0
13.81708,-16335.1,-2550.63,673.476,-1678.446,-1179.146,-283.1328,0,0
13.81708,-16257.75,-2292.75,763.0388,-1683.201,-1374.83,-101.939,0,0
13.90002,-16313.8,-2187.303,873.9809,-1691.268,-1315.124,385.7772,0,0
13.98296,-16384.33,-2332.926,874.7246,-1688.558,-1032.892,728.3824,0,0
13.99987,-16227.62,-2462.219,772.2561,-1682.035,-653.5065,318.7566,0,0
13.99987,-16322.7,-2614.21,720.6157,-1685.903,-525.72,-76.75018,0,0
14.04963,-16244.74,-2820.957,655.9372,-1671.131,-434.5701,-601.2047,0,0
14.04963,-16218.39,-2770.12,655.6329,-1664.277,-278.2157,-1206.59,0,0
14.08281,-16275.93,-2688.453,905.1068,-1659.071,-329.1563,-1612.572,0,0
14.11598,-16259.07,-2470.476,1224.466,-1659.567,-519.1265,-527.4309,0,0
14.13257,-16301.6,-2629.513,1284.186,-1659.994,-497.8047,997.8905,0,0
14.14916,-16103.7,-2905.189,973.3006,-1673.658,-388.2512,1433.85,0,0
14.19892,-16237.29,-3108.955,1194.784,-1679.698,-308.4346,1234.458,0,0
14.2321,-16078.22,-2733.282,1420.143,-1671.023,-246.3968,1977.745,0,0
14.26527,-16099.79,-3160.122,722.9589,-1677.689,-297.3349,2492.649,0,0
14.31503,-16057.97,-3361.883,151.9648,-1673.929,-435.266,1355.812,0,0
14.31503,-16169.31,-3285.7,280.4608,-1675.488,-569.4694,513.4196,0,0
14.3482,-15851.49,-3009.199,-92.75982,-1672.254,-537.1721,265.5602,0,0
14.38138,-15776.33,-3364.419,-213.4551,-1669.788,-338.4995,1311.022,0,0
14.41455,-15828.39,-3560.05,-390.9944,-1667.916,-50.92661,-450.5313,0,0
14.49748,-15901.23,-3296.366,9.708413,-1670.933,152.771,-2053.153,0,0
14.49748,-16009.71,-3052.865,499.7854,-1673.255,267.6602,-2132.634,0,0
14.53066,-15997.85,-3301.85,982.8207,-1666.175,295.4642,-1719.823,0,0
14.61359,-16013.49,-3344.689,797.9387,-1674.069,331.6099,-1434.042,0,0
14.61359,-16009.15,-3360.39,1039.324,-1671.253,308.4557,-1272.772,0,0
14.64677,-16055.96,-3290.004,1165.641,-1664.673,207.3099,-526.6794,0,0
14.67994,-15982.3,-3279.135,954.3444,-1659.659,166.9171,37.41676,0,0
14.67994,-16029.26,-3216.449,901.6393,-1664.716,152.6628,15.69574,0,0
14.7297,-16111.94,-3209.573,970.5253,-1659.746,33.84073,399.3254,0,0
14.76288,-16045.62,-3194.542,1000.544,-1660.402,57.63537,601.9497,0,0
14.79605,-16085.83,-3154.521,1067.232,-1660.932,155.1181,798.2194,0,0
14.79605,-16051.31,-3169.728,1074.356,-1665.794,289.4023,1243.207,0,0
14.84618,-16023.89,-3187.344,1102.365,-1660.666,337.4523,1935.845,0,0
14.87936,-15968.74,-3292.1,870.4933,-1665.625,336.8341,2803.053,0,0
14.91255,-15849.27,-3482.202,463.4892,-1669.433,318.371,3213.865,0,0
14.94573,-15879.12,-3681.86,242.4096,-1667.917,282.7178,2771.917,0,0
15.02868,-15929.02,-3799.808,70.00697,-1666.761,352.5481,2871.273,0,0
15.02868,-15816.9,-4231.661,-376.0807,-1661.452,457.0268,2567.328,0,0
15.06186,-15801.41,-4455.393,-523.3846,-1675.13,550.981,1298.389,0,0
15.09505,-15678.24,-4609.125,-512.6066,-1667.864,726.149,141.8375,0,0
15.09505,-15764.23,-4674.729,-283.4814,-1662.304,862.326,-489.103,0,0
15.14482,-15808.5,-4627.464,-90.58807,-1675.788,842.1055,-758.2818,0,0
15.178,-15930.37,-4352.275,477.2374,-1672.802,656.5679,-96.11591,0,0
15.21118,-15946.27,-4276.72,247.2873,-1666.077,380.1388,1200.686,0,0
15.24436,-15855.5,-4450.704,-140.9824,-1665.366,115.6895,1672.477,0,0
15.29413,-15657.8,-4558.442,-269.6051,-1664.831,197.5466,1338.974,0,0
15.31072,-15780.8,-4650.773,-539.2857,-1664.432,-149.9688,570.0795,0,0
15.31072,-15947.41,-4510.765,-148.7141,-1664.136,-402.8134,485.8503,0,0
15.36049,-15893.3,-4624.261,-301.6234,-1663.92,-567.3952,1353.1,0,0
15.42685,-15662.56,-4408.82,-209.0129,-1663.765,204.427,1863.917,0,0
15.47662,-15923.03,-4695.451,-450.4849,-1659.226,304.3374,2295.381,0,0
15.47662,-15868.79,-4880.7,-836.4709,-1664.633,519.0432,2423.979,0,0
15.54297,-15815.22,-5052.251,-1102.969,-1659.917,282.7588,1623.475,0,0
15.55957,-15683.62,-5281.725,-1441.436,-1669.617,136.0169,-37.27494,0,0
15.55957,-15750.7,-5010.115,-1026.778,-1668.175,-62.00201,-1863.311,0,0
15.60934,-15857.81,-4630.379,-448.7462,-1671.499,-171.4264,-1808.244,0,0
15.64252,-15900.04,-4439.186,-227.9139,-1665.172,-26.95647,-908.4993,0,0
15.64252,-15828.23,-4529.142,-337.6609,-1669.194,-51.27927,-446.7982,0,0
15.6757,-15818.82,-4653.626,-370.1627,-1667.838,-290.6702,-666.3387,0,0
15.70888,-15850.57,-4507.411,-39.93392,-1671.229,-704.7222,-205.979,0,0
15.79183,-15748.67,-4408.021,-30.99791,-1673.817,-571.1171,530.0092,0,0
15.79183,-15670.97,-4462.189,-165.0584,-1662.489,-388.6081,661.5253,0,0
15.82502,-15665.15,-4463.229,-352.8903,-1667.122,-444.4635,878.5429,0,0
15.84161,-15687.75,-4367.121,-430.7934,-1661.808,-241.0208,473.7045,0,0
15.87479,-15699.92,-4309.879,-413.2927,-1666.616,-90.7746,181.1472,0,0
15.94115,-15786.02,-4283.657,-366.0273,-1665.867,6.718966,240.8557,0,0
15.99092,-15756.79,-4461.828,-399.1445,-1669.728,1.818557,229.4631,0,0
15.99092,-15844.28,-4536.853,-483.7884,-1659.384,-299.43,268.5926,0,0
16.02408,-15796.02,-4574.846,-494.7186,-1669.208,-349.1313,293.1116,0,0
16.05726,-15871.04,-4574.457,-373.8891,-1663.43,-494.7267,612.9495,0,0
16.05726,-15764.42,-4738.584,-563.4935,-1667.877,-524.0087,697.2886,0,0
16.09044,-15781.54,-4867.694,-706.7674,-1662.417,-746.9867,394.2511,0,0
16.14021,-15845.72,-4744.855,-653.6386,-1662.678,-929.7563,160.1022,0,0
16.17339,-15922.51,-4615.573,-584.3568,-1658.456,-1088.591,334.0264,0,0
16.20658,-15855.9,-4524.918,-689.0329,-1659.673,-1089.796,53.91331,0,0
16.23976,-15885.7,-4374.353,-647.5308,-1660.62,-915.586,-252.7673,0,0
16.27294,-15874.06,-4214.844,-631.6172,-1665.788,-823.3339,-301.0505,0,0
16.30612,-15892.75,-4063.264,-624.2985,-1660.881,-667.0192,-391.2908,0,0
16.35589,-15869.26,-3955.753,-549.3926,-1661.566,-493.9399,-486.6661,0,0
16.35589,-15945.37,-3994.086,-556.9924,-1657.668,-367.7457,-719.6086,0,0
16.47203,-15953.56,-3911.303,-515.8826,-1663.562,-316.8185,-985.4266,0,0
16.47203,-16010.54,-3876.624,-466.3989,-1654.784,-337.2146,-1147.13,0,0
16.50521,-16029.42,-3723.71,-376.2947,-1661.379,-524.6094,-1014.525,0,0
16.58816,-16005.82,-3642.309,-233.1536,-1662.004,-694.8571,-658.9887,0,0
16.58816,-16059.44,-3599.167,-179.3516,-1666.918,-796.2015,-553.046,0,0
16.62134,-16060.18,-3525.52,-198.4923,-1661.81,-819.1096,-524.7263,0,0
16.62134,-16032.66,-3429.714,-27.47792,-1662.335,-777.8041,-529.1123,0,0
16.65451,-16001.29,-3291.602,26.20584,-1658.309,-727.6404,-383.2799,0,0
16.68769,-16036.87,-3188.906,34.28055,-1659.67,-617.9604,-339.959,0,0
16.70429,-16070.47,-3176.607,3.032574,-1656.29,-554.6768,-454.1995,0,0
16.72087,-16112.45,-3077.238,-121.3467,-1658.149,-444.2799,-442.3525,0,0
16.80383,-16167.41,-2977.793,62.17064,-1659.584,-254.3226,-41.2918,0,0
16.83701,-16120.33,-3159.791,-9.727809,-1656.258,27.12632,480.3808,0,0
16.8536,-16067.26,-3108.069,29.88196,-1644.864,399.8705,330.4605,0,0
16.87019,-16151.55,-3205.329,71.72752,-1645.042,676.3591,667.3726,0,0
16.91997,-16142.54,-3235.766,7.765719,-1649.648,739.0162,1030.953,0,0
16.95315,-16183.98,-3316.805,-186.8709,-1657.631,613.2875,1155.521,0,0
16.98633,-16201.95,-3370.967,-248.4331,-1659.317,447.0561,1382.186,0,0
17.00292,-16185.31,-3365.594,-203.5208,-1647.314,318.1773,2015.107,0,0
17.06928,-16075.77,-3434.248,-368.5467,-1647.015,158.7498,2555.357,0,0
17.10246,-16009.48,-3536.114,-588.6873,-1646.814,241.4193,2140.695,0,0
17.10246,-15922.2,-3622.148,-664.4159,-1642.256,388.0025,1278.643,0,0
17.15223,-15953.08,-3761.201,-731.3565,-1643.233,310.7063,473.4563,0,0
17.18541,-15983.52,-3764.375,-770.4174,-1639.582,117.6279,-372.8539,0,0
17.18541,-15984.75,-3724.444,-724.9553,-1632.394,-285.4513,-729.6398,0,0
17.21859,-16063.29,-3671.558,-619.3775,-1631.375,-661.1257,-568.7921,0,0
17.25178,-16152.1,-3776.165,-739.4869,-1635.079,-1222.114,-269.9758,0,0
17.28496,-16126.71,-3820.545,-922.4834,-1637.956,-1834.84,-67.69817,0,0
17.33473,-15977.4,-3927.283,-1266.245,-1644.623,-2830.124,522.0541,0,0
17.36791,-16084.75,-3874.375,-1398.91,-1645.311,-3682.483,603.6077,0,0
17.40109,-16622.11,-3999.601,-1520.4,-1654.713,-4244.531,551.4997,0,0
17.43427,-16718.64,-3911.991,-1637.6,-1661.9,-4896.898,268.9832,0,0
17.45086,-16208.28,-3320.458,-1294.957,-1658.514,-5493.006,-1.203626,0,0
17.48404,-15991.16,-2771.007,-783.957,-1651.472,-5612.011,129.1858,0,0
17.51723,-16353.6,-2713.663,-756.8588,-1650.512,-5265.476,159.6541,0,0
17.55041,-16197.35,-2508.034,-801.2552,-1649.778,-5078.177,114.0713,0,0
17.58359,-15996.64,-2190.336,-615.5954,-1649.221,-4867.514,465.1009,0,0
17.63336,-16078.09,-2126.426,-748.322,-1648.799,-4361.849,722.6405,0,0
17.66655,-16171.55,-2290.047,-1247.479,-1648.481,-4021.842,746.8222,0,0
17.69969,-16200.86,-2435.672,-1504.256,-1648.244,-4003.377,594.2613,0,0
17.71632,-15499.69,-2010.907,-1399.878,-1648.069,-3571.427,462.1588,0,0
17.7495,-15513.75,-1805.001,-1260.818,-1639.079,-2870.93,914.9271,0,0
17.81586,-15704.21,-1919.873,-1677.217,-1641.085,-2947.31,2504.631,0,0
17.83245,-15701.32,-1712.707,-1671.637,-1633.78,-3006.907,3126.928,0,0
17.84904,-15920.34,-1665.855,-1822.756,-1641.517,-2439.849,3155.736,0,0
17.93199,-15879.99,-1759.413,-2086.962,-1647.458,-1884.581,2818.459,0,0
17.96518,-16290.3,-1889.184,-1980.833,-1656.441,-1239.943,2075.715,0,0
17.96518,-15864.88,-1580.945,-2036.88,-1650.005,-966.735,2957.384,0,0
18.04813,-16023.61,-1839.682,-2525.069,-1653.936,-691.7679,3904.151,0,0
18.04813,-16141.79,-2110.808,-3091.641,-1652.503,-274.9455,3606.801,0,0
18.08131,-15774.43,-2286.525,-3564.193,-1651.397,130.0804,2643.174,0,0
18.11449,-15698.67,-2599.179,-4032.565,-1654.976,382.1893,2750.054,0,0
18.11449,-15855.19,-2775.5,-4412.728,-1662.135,638.7708,2416.125,0,0
18.14767,-16063.97,-2937.848,-4522.062,-1663.155,1562.614,1252.109,0,0
18.19744,-15688.55,-1394.19,-4927.082,-1655.043,1967.195,-135.2818,0,0
18.23063,-15951.27,-1956.675,-4415.765,-1644.391,1659.039,-377.4294,0,0
18.26381,-16218.94,-2131.84,-3914.532,-1645.114,1225.092,371.5106,0,0
18.26381,-16392.27,-2386.591,-3714.984,-1641.25,-296.8905,566.7667,0,0
18.34676,-16352.3,-2697.19,-3747.135,-1647.176,-595.8317,-355.7334,0,0
18.37994,-16136.98,-3026.532,-3540.274,-1651.72,-725.7479,-929.1998,0,0
18.41312,-16138,-2911.943,-3588.66,-1641.901,-758.5584,-2277.263,0,0
18.41312,-16017.77,-2878.742,-3365.023,-1643.265,-682.5604,-3585.996,0,0
18.44631,-16070.87,-2777.266,-3210.724,-1648.755,-656.3364,-3610.955,0,0
18.49608,-16047.2,-2682.506,-3139.901,-1644.097,-661.0483,-3730.806,0,0
18.52925,-16122.09,-2422.536,-3246.238,-1644.974,33.72253,-4502.972,0,0
18.56244,-15949.92,-2388.977,-3042.7,-1641.224,649.8534,-5357.617,0,0
18.57903,-15877.03,-2055.801,-2360.95,-1642.801,778.2042,-5028.276,0,0
18.61221,-14862.23,-1236.963,-1478.655,-1635.159,-333.0677,-3027.236,0,0
18.64539,-15138.17,-1553.64,-909.0219,-1638.201,-516.2602,-1106.119,0,0
18.67857,-15228.44,-1777.273,-521.2692,-1640.551,-1015.279,1326.092,0,0
18.71175,-15335.76,-1835.953,-677.8235,-1642.365,-1355.278,3593.246,0,0
18.76152,-15205.42,-1624.089,-1043.353,-1643.764,-1857.738,5402.388,0,0
18.7947,-15780.68,-1279.723,-2327.749,-1640.409,-1514.159,5576.479,0,0
18.82788,-16098.27,-956.4802,-2977.59,-1633.423,-1190.913,4967.579,0,0
18.86084,-16481.46,-634.5316,-3486.763,-1632.534,-625.152,4423.54,0,0
18.87765,-16611.56,-288.6864,-3980.17,-1631.883,188.8864,2583.994,0,0
18.94386,-16171.01,-267.4715,-3686.132,-1622.551,523.6719,916.6995,0,0
18.94386,-15687.93,0.5544522,-3675.2,-1628.75,849.4879,177.0349,0,0
18.9772,-15460.38,-101.1787,-3688.471,-1624.667,570.7268,-173.7751,0,0
19.02697,-15753.6,-744.7675,-3186.433,-1612.718,-598.8095,-2434.777,0,0
19.06015,-16314.08,-710.3107,-3711.369,-1616.929,-140.4678,-2352.276,0,0
19.09489,-15865.93,-536.6094,-3368.633,-1620.206,-174.3552,-1904.768,0,0
19.12757,-16116.64,-839.2831,-2644.965,-1622.758,-2267.485,821.1984,0,0
19.12757,-16373.44,-451.2246,-3063.814,-1624.746,-3746.371,4096.042,0,0
19.21052,-16365.14,-75.71364,-3360.554,-1621.863,-3012.952,4736.992,0,0
19.21052,-16345.58,919.7782,-4509.197,-1624.12,-1948.399,4897.519,0,0
19.32664,-16460.4,1131.551,-5001.382,-1617.011,4890.673,-152.9568,0,0
19.32664,-17090.01,1065.405,-4462.661,-1616.04,5954.43,-1601.597,0,0
19.39299,-17887.46,1241.128,-4157.533,-1619.768,6862.123,-4473.769,0,0
19.40958,-17319.47,1478.953,-3045.125,-1613.79,6513.81,-7134.14,0,0
19.42617,-16615.96,1426.179,-2480.564,-1618.117,6028.374,-5879.001,0,0
19.47594,-16357.76,1149.113,-2576.099,-1630.322,5066.609,-2039.372,0,0
19.47594,-16357,1382.552,-2640.572,-1626.373,5477.412,-1531.01,0,0
19.50912,-16899.01,2097.401,-1698.411,-1627.789,7482.982,-3129.21,0,0
19.50912,-17341.33,896.2285,-3001.994,-1637.74,9968.793,-6491.843,0,0
19.54229,-17493.64,-1789.896,221.7374,-1636.478,13141.27,-7096.488,0,0
19.59206,-15694.39,-2068.177,1091.698,-1639.928,10684.5,-137.7391,0,0
19.60851,-15758.58,-1531.483,-1700.045,-1633.684,7384.409,6124.229,0,0
19.60851,-15333.97,-1517.747,-2953.548,-1628.896,6111.208,3847.624,0,0
19.65842,-14949.21,-1493.625,-1716.705,-1634.099,5397.654,1753.582,0,0
19.72478,-15542.93,-1472.826,-1310.071,-1633.643,4565.205,427.227,0,0
19.74137,-15758.74,-1690.714,-1085.778,-1637.72,3787.955,688.6111,0,0
19.80772,-16071.21,-1855.004,-1716.01,-1640.826,3002.044,1147.691,0,0
19.84091,-16246.42,-1901.565,-2214.545,-1634.32,2331.853,1013.857,0,0
19.85749,-16565.35,-1810.392,-2314.075,-1638.196,1637.666,154.8517,0,0
19.92385,-16560.43,-1279.57,-1200.544,-1632.287,646.3033,-374.2878,0,0
19.95703,-16152.51,-432.3354,185.5745,-1636.626,1290.329,-72.10887,0,0
19.95703,-15804.83,-1106.304,108.9142,-1631.076,2524.408,-73.83821,0,0
20.0068,-15545.09,-1359.229,-349.4844,-1631.262,3048.324,-1463.418,0,0
20.02339,-15758.7,-1343.475,-339.9463,-1631.408,2216.777,-2390.512,0,0
20.03997,-16142.51,-1482.134,36.94812,-1640.385,1123.951,-1936.179,0,0
20.07315,-16354.36,-1509.44,22.0005,-1633.946,279.4265,-813.7462,0,0
20.10633,-16314.39,-1447.06,-72.24344,-1637.876,-353.8433,113.6359,0,0
20.13951,-16157.07,-1266.378,-195.731,-1636.443,-941.6393,617.4485,0,0
20.1561,-16207.18,-1273.662,-224.7918,-1630.907,-1927.626,624.1036,0,0
20.18928,-16280.84,-1123.563,-273.2516,-1631.105,-2380.525,9.537585,0,0
20.22246,-16457.69,-1189.012,-190.0557,-1626.831,-2660.986,-119.191,0,0
20.25564,-16589.05,-1226.601,-227.6619,-1623.574,-3012.083,379.5035,0,0
20.33858,-16481.49,-1221.739,-397.4062,-1625.533,-2854.002,659.8104,0,0
20.37176,-16442.76,-1229.828,-569.1925,-1622.618,-2493.987,915.7808,0,0
20.40494,-16412.55,-1494.874,-621.2758,-1624.84,-2261.328,1124.102,0,0
20.40494,-16272.65,-1615.968,-652.3998,-1630.988,-1958.841,1174.285,0,0
20.43812,-16256.29,-1796.098,-758.1741,-1631.264,-1718.694,959.6921,0,0
20.48789,-16235.95,-1919.154,-759.0569,-1627.044,-1778.136,605.6245,0,0
20.52106,-16254.73,-1962.855,-628.6214,-1632.685,-1985.446,540.1078,0,0
20.52106,-16298.97,-2015.58,-670.426,-1628.137,-2061.797,617.6605,0,0
20.55424,-16240.76,-2058.573,-860.5769,-1629.093,-2009.481,544.0244,0,0
20.58742,-16249.37,-2086.357,-1031.989,-1634.26,-1926.377,397.5155,0,0
20.63719,-16308,-1978.457,-1010.27,-1629.346,-1666.749,240.1981,0,0
20.67037,-16426.97,-1903.28,-1025.733,-1621.156,-1332.377,246.9957,0,0
20.70355,-16429.01,-2016.263,-1081.815,-1623.77,-1132.872,564.1739,0,0
20.75332,-16353.72,-2052.663,-1093.54,-1621.355,-1038.924,849.3442,0,0
20.7865,-16313.58,-2010.473,-1064.637,-1619.527,-832.8291,939.0538,0,0
20.81968,-16299.37,-2019.064,-1121.026,-1622.582,-623.9833,885.3415,0,0
20.85286,-16306.15,-2024.489,-1131.815,-1611.643,-475.631,551.7062,0,0
20.90262,-16316.8,-2100.655,-1170.823,-1621.031,-455.1321,351.6273,0,0
20.90262,-16349.23,-2069.128,-1223.605,-1623.805,-441.475,268.1662,0,0
20.9358,-16287.49,-2067.173,-1276.858,-1621.505,-267.4821,279.7389,0,0
20.96898,-16288.94,-2112.297,-1378.006,-1619.757,-145.3438,365.1508,0,0
21.00216,-16278.96,-2060.482,-1332.831,-1614.005,-119.6828,423.5294,0,0
21.01875,-16272.44,-1954.564,-1221.185,-1614.06,-28.34018,444.1816,0,0
21.08511,-16281.87,-2000.279,-1227.33,-1618.562,37.77971,536.9978,0,0
21.08511,-16248.1,-2039.056,-1264.956,-1617.592,93.88905,547.7731,0,0
21.11829,-16255.56,-2070.249,-1292.273,-1625.729,91.2905,429.5393,0,0
21.16805,-16292.35,-2065.69,-1348.211,-1627.525,9.180955,433.2843,0,0
21.18465,-16250.7,-2021.623,-1381.641,-1624.462,-106.9767,495.8092,0,0
21.23392,-16280.91,-2009.485,-1439.886,-1626.547,-61.39562,349.2378,0,0
21.2671,-16369.4,-1977.543,-1405.137,-1614.845,-2.564214,372.4996,0,0
21.31684,-16348.31,-2053.506,-1468.798,-1614.771,64.63607,511.8956,0,0
21.38318,-16275.51,-2050.193,-1506.881,-1619.168,11.272,663.7222,0,0
21.38318,-16233.09,-1985.109,-1443.351,-1613.682,61.56191,735.5461,0,0
21.41635,-16229.54,-1981.477,-1537.062,-1613.936,100.8426,682.0033,0,0
21.41635,-16168.23,-2083.637,-1620.259,-1614.151,95.07668,596.6155,0,0
21.4661,-16133.74,-2038.368,-1646.507,-1614.335,100.2898,429.4762,0,0
21.49928,-16189.65,-2060.923,-1609.195,-1614.494,13.95227,246.6869,0,0
21.53244,-16221.55,-2054.509,-1555.482,-1623.495,-324.758,439.8024,0,0
21.56561,-16198.45,-1909.632,-1772.979,-1621.518,-491.4163,679.8685,0,0
21.56561,-16146.56,-1802.007,-1943.97,-1628.866,-382.2274,455.1414,0,0
21.61537,-16207.9,-1718.73,-1911.728,-1621.181,-248.5178,157.5815,0,0
21.64854,-16282.66,-1653.175,-1882.443,-1619.729,-93.61038,-47.69946,0,0
21.68171,-16363.09,-1535.96,-1727.057,-1609.758,15.11288,-128.9755,0,0
21.71488,-16373.44,-1579.949,-1657.229,-1611.015,11.23325,141.8396,0,0
21.76463,-16337.89,-1591.022,-1721.8,-1607.568,-7.378575,254.1998,0,0
21.7978,-16257.31,-1562.427,-1645.439,-1609.391,-103.9491,183.4513,0,0
21.83097,-16246.59,-1532.296,-1681.834,-1615.242,-99.33199,133.2831,0,0
21.83097,-16302.69,-1438.989,-1658.273,-1619.732,-45.21381,21.97757,0,0
21.86414,-16371.03,-1435.968,-1615.473,-1623.167,239.4423,8.110582,0,0
21.91389,-16348.89,-1578.478,-1797.351,-1621.356,380.6315,146.1133,0,0
21.94707,-16349.48,-1694.668,-1911.561,-1615.532,343.2758,174.0412,0,0
21.98023,-16359.73,-1842.474,-1955.999,-1619.944,132.8053,179.636,0,0
22.0134,-16376.26,-1873.437,-1807.376,-1618.889,-208.5539,219.061,0,0
22.04657,-16373.19,-1742.866,-1576.693,-1626.944,-461.2475,413.6186,0,0
22.09616,-16282.02,-1606.364,-1537.445,-1624.231,-546.0453,477.2346,0,0
22.09616,-16300.86,-1511.063,-1547.383,-1622.142,-543.1265,305.858,0,0
22.1295,-16354.05,-1417.604,-1612.678,-1616.106,-434.3388,100.1042,0,0
22.21242,-16385.78,-1320.209,-1649.3,-1620.355,-193.0137,-16.8238,0,0
22.21242,-16369.98,-1400.561,-1820.085,-1614.745,-54.93184,230.852,0,0
22.24559,-16343.32,-1441.736,-1927.031,-1610.461,-11.19201,266.0406,0,0
22.32851,-16374.89,-1500.413,-1874.093,-1611.633,162.6709,125.7006,0,0
22.32851,-16331.33,-1613.309,-1856.21,-1616.979,149.4054,124.367,0,0
22.3451,-16310.11,-1637.817,-1858.597,-1621.077,25.0543,63.2838,0,0
22.39485,-16352.59,-1615.631,-1691.526,-1628.639,-163.252,44.09501,0,0
22.39485,-16448.17,-1616.456,-1561.299,-1625.543,-281.2517,212.3753,0,0
22.42802,-16408.04,-1610.523,-1618.012,-1623.157,-405.2445,441.7968,0,0
22.46156,-16317.29,-1561.758,-1799.993,-1621.322,-437.7302,485.9555,0,0
22.51131,-16327.6,-1480.308,-1820.444,-1619.913,-279.083,377.6587,0,0
22.54452,-16295.6,-1453.776,-1847.903,-1614.402,-120.1803,390.2645,0,0
22.5777,-16266.75,-1505.893,-1910.595,-1614.627,-68.93423,445.5804,0,0
22.62747,-16221.53,-1486.256,-1897.116,-1610.38,-120.732,501.9126,0,0
22.62747,-16261.37,-1519.164,-1925.076,-1607.148,-50.50629,308.5487,0,0
22.72702,-16266.52,-1563.408,-1976.974,-1609.133,-51.7971,187.0326,0,0
22.72702,-16312.68,-1580.765,-1985.069,-1601.811,-108.663,201.1372,0,0
22.7602,-16311.46,-1618.477,-1947.454,-1600.674,-204.0584,383.2915,0,0
22.77679,-16276.18,-1605.214,-1836.19,-1599.841,-321.2479,597.021,0,0
22.80997,-16218.23,-1616.099,-1812.838,-1608.104,-337.9825,649.1528,0,0
22.84315,-16221.71,-1588.949,-1863.515,-1605.584,-263.659,394.9565,0,0
22.87633,-16242.3,-1500.618,-1915.37,-1608.108,-164.4038,112.3536,0,0
22.9261,-16302.51,-1504.123,-1960.264,-1610.054,-81.75777,-44.53514,0,0
22.95928,-16388.47,-1431.694,-1965.398,-1602.691,92.66193,-107.0362,0,0
22.95928,-16359.92,-1366.645,-1935.669,-1601.509,267.1572,-2.169809,0,0
22.99247,-16300.25,-1306.271,-2012.277,-1596.201,451.8535,13.69397,0,0
23.02565,-16323.26,-1425.733,-2059.363,-1587.743,599.1104,-43.92723,0,0
23.07542,-16357.45,-1560.717,-2032.8,-1594.617,524.9451,-53.85408,0,0
23.1086,-16277.15,-1657.397,-1968.773,-1599.917,526.8843,79.3503,0,0
23.14178,-16284.43,-1826.439,-1896.179,-1590.703,504.9134,232.8946,0,0
23.17496,-16264.58,-1999.541,-1844.91,-1588.122,325.4528,316.6069,0,0
23.19155,-16206.27,-2104.477,-1759.138,-1590.624,128.9206,192.115,0,0
23.25792,-16182.9,-2152.595,-1725.806,-1601.44,-59.13005,163.3079,0,0
23.2911,-16174.14,-2044.165,-1775.897,-1600.869,-161.2987,92.34312,0,0
23.2911,-16224.21,-1943.592,-1813.292,-1609.306,-176.9861,-81.63883,0,0
23.32428,-16332.49,-1868.159,-1836.437,-1602.462,-146.3868,-57.4282,0,0
23.37404,-16317.79,-1776.74,-1915.083,-1610.522,-161.0401,2.953871,0,0
23.40722,-16334.15,-1648.95,-1853.249,-1603.388,-159.0952,-79.74546,0,0
23.44041,-16306.68,-1611.052,-1754.909,-1602.362,-143.0848,-73.80732,0,0
23.47359,-16373.12,-1609.941,-1626.636,-1606.015,-112.7643,-70.39174,0,0
23.47359,-16331.85,-1613.724,-1532.235,-1608.81,-32.25011,9.985828,0,0
23.52318,-16282.43,-1710.966,-1648.97,-1606.511,7.283984,90.63773,0,0
23.55654,-16247.95,-1882.852,-1759.776,-1600.317,-53.06335,173.2315,0,0
23.58972,-16283.7,-2069.391,-1838.064,-1604.449,-306.6165,221.3854,0,0
23.67267,-16315.53,-2119.394,-1704.042,-1607.615,-547.9854,303.4373,0,0
23.67267,-16253.44,-2089.154,-1670.33,-1605.602,-643.2297,475.239,0,0
23.70585,-16194.91,-2038.586,-1688.012,-1608.491,-638.0609,515.972,0,0
23.73903,-16176.91,-1913.905,-1708.431,-1601.834,-537.5396,321.973,0,0
23.73903,-16207.71,-1798.171,-1753.04,-1596.745,-388.136,139.5688,0,0
23.7888,-16270.23,-1639.727,-1786.145,-1597.3,-192.5735,19.11609,0,0
23.82199,-16321.44,-1584.113,-1804.821,-1593.312,-35.00204,15.61763,0,0
23.85517,-16316.23,-1612.886,-1870.011,-1599.147,53.4974,137.9381,0,0
23.88835,-16287.78,-1770.433,-1950.726,-1590.333,-7.740728,178.7604,0,0
23.93812,-16279.27,-1923.162,-1889.163,-1592.478,-286.4851,269.799,0,0
23.9713,-16237.31,-1987.647,-1800.806,-1589.713,-623.3588,360.3006,0,0
24.00449,-16255.14,-1951.198,-1831.737,-1583.195,-885.4265,188.7483,0,0
24.03767,-16315.37,-1818.748,-1708.002,-1587.11,-1063.069,115.8057,0,0
24.05426,-16345.89,-1634.176,-1673.297,-1594.571,-997.937,343.1504,0,0
24.08744,-16323.68,-1581.846,-1706.833,-1587.002,-808.9415,653.0909,0,0
24.12062,-16294.39,-1483.539,-1866.748,-1585.668,-553.069,784.336,0,0
24.1538,-16275.27,-1456.585,-1926.959,-1589.108,-199.8596,659.1387,0,0
24.20357,-16306.07,-1575.13,-2094.59,-1596.195,-18.64428,551.7642,0,0
24.23675,-16287.51,-1612.004,-2233.312,-1597.194,42.09595,487.7035,0,0
24.26993,-16354.16,-1619.469,-2262.093,-1602.391,-34.10295,493.0016,0,0
24.30311,-16333.03,-1586.657,-2120.269,-1593.064,-89.46828,536.1896,0,0
24.30311,-16307.88,-1649.359,-2049.829,-1603.659,-127.8845,636.8394,0,0
24.33629,-16205.51,-1722.992,-1994.368,-1598.463,-114.987,649.4503,0,0
24.38606,-16140.62,-1758.285,-2084.575,-1598.914,-189.6544,617.6491,0,0
24.41924,-16164.41,-1738.659,-2222.977,-1603.688,-158.0784,373.3254,0,0
24.46902,-16229.42,-1617.215,-2186.385,-1602.899,-212.2204,282.0601,0,0
24.48561,-16280.42,-1507.833,-2230.846,-1611.146,-142.9747,373.015,0,0
24.53538,-16295.07,-1496.558,-2295.203,-1613,-67.75915,435.9891,0,0
24.56856,-16277.43,-1491.721,-2331.475,-1614.386,-52.11364,495.669,0,0
24.56856,-16232.89,-1489.583,-2330.693,-1602.12,-12.02663,429.4507,0,0
24.61833,-16223.26,-1488.382,-2313.775,-1601.587,17.3464,329.3212,0,0
24.63492,-16213.79,-1454.644,-2333.33,-1592.314,34.31905,212.3334,0,0
24.68469,-16287.53,-1527.879,-2399.638,-1589.666,24.61516,110.4038,0,0
24.71787,-16280.79,-1467.906,-2298.902,-1583.233,-6.292348,133.7749,0,0
24.75105,-16288.9,-1460.051,-2269.95,-1591.64,-11.79195,251.0602,0,0
24.83401,-16266.25,-1437.815,-2314.896,-1593.663,-5.002788,267.6839,0,0
24.86719,-16207.93,-1394.628,-2342.123,-1604.086,5.937376,170.6226,0,0
24.91696,-16253.14,-1362.066,-2360.177,-1603.191,80.70188,-4.679642,0,0
24.91696,-16292.23,-1384.215,-2339.072,-1602.494,124.1398,7.26826,0,0
24.95014,-16301.04,-1350.688,-2370.042,-1601.952,127.4534,41.49337,0,0
24.98332,-16313.24,-1393.116,-2374.374,-1601.53,193.1246,10.12395,0,0
24.98332,-16275.95,-1427.106,-2439.197,-1596.77,165.173,-52.87319,0,0
25.0165,-16260.67,-1446.777,-2366.32,-1588.7,79.4873,-121.4171,0,0
25.04968,-16235.71,-1387.844,-2215.909,-1591.408,56.18016,-179.962,0,0
25.09946,-16306.41,-1376.311,-2221.429,-1584.636,53.29264,-76.49773,0,0
25.13264,-16296.2,-1339.04,-2142.497,-1579.483,-10.09923,49.35308,0,0
25.16582,-16251.76,-1287.67,-2155.294,-1580.011,53.71719,86.21436,0,0
25.199,-16285.36,-1319.766,-2209.487,-1584.886,45.84932,105.7904,0,0
25.21559,-16307.73,-1255.033,-2176.708,-1584.213,-21.30641,115.6733,0,0
25.24877,-16273.81,-1256.981,-2161.609,-1588.154,-122.8867,106.7469,0,0
25.28195,-16314.31,-1225.757,-2147.896,-1582.324,-101.5829,332.966,0,0
25.31513,-16329.71,-1367.476,-2280.396,-1582.318,-47.45589,387.2385,0,0
25.34831,-16271.58,-1338.818,-2284.137,-1582.341,-12.09152,326.0861,0,0
25.39808,-16245.93,-1203.024,-2282.346,-1582.382,145.9126,224.086,0,0
25.39808,-16293.94,-1301.229,-2280.769,-1582.437,257.8668,58.66692,0,0
25.43126,-16336.19,-1385.584,-2187.421,-1586.932,294.9922,45.04431,0,0
25.46445,-16327.42,-1459.117,-2184.671,-1585.953,272.2791,108.6161,0,0
25.51422,-16309.52,-1527.508,-2219.168,-1580.783,241.2311,82.9567,0,0
25.5474,-16241.46,-1399.046,-2098.204,-1581.28,64.32706,106.4526,0,0
25.58058,-16335.69,-1433.683,-2022.451,-1572.818,15.75439,147.3012,0,0
25.66353,-16353.43,-1441.35,-1990.342,-1575.241,-50.75523,258.9374,0,0
25.66353,-16298.16,-1420.594,-2088.085,-1572.697,-36.40284,225.9335,0,0
25.69671,-16301.25,-1430.193,-2111.07,-1575.216,11.29427,188.6197,0,0
25.72989,-16335.71,-1448.609,-2148.755,-1572.742,49.50578,174.1353,0,0
25.72989,-16306.6,-1459.333,-2193.167,-1584.174,27.46413,177.9986,0,0
25.76307,-16299.78,-1457.497,-2275.855,-1584.068,87.57134,-19.56655,0,0
25.79625,-16272.39,-1437.19,-2280.201,-1579.559,196.3127,-409.1141,0,0
25.84602,-16276.95,-1489.202,-2093.844,-1584.983,131.5601,-467.0208,0,0
25.8792,-16292.67,-1432.508,-2108.667,-1584.705,45.75134,-340.4445,0,0
25.91238,-16281.44,-1438.953,-2076.971,-1584.493,30.9991,-220.0513,0,0
25.91238,-16291.69,-1417.289,-2095.025,-1584.333,38.00973,-136.586,0,0
25.96216,-16249.69,-1416.251,-2048.09,-1588.643,-54.93064,-65.01612,0,0
25.99534,-16246.44,-1335.734,-2024.61,-1587.503,-7.883755,-131.8095,0,0
26.02852,-16286.14,-1360.72,-1983.681,-1582.193,-13.2978,-98.35134,0,0
26.07829,-16278.88,-1383.333,-2000.371,-1582.567,-59.15089,37.52335,0,0
26.09488,-16319.87,-1380.802,-2062.225,-1578.428,-159.1292,-132.6535,0,0
26.14465,-16360.03,-1368.99,-1909.24,-1579.705,-325.2512,-131.8637,0,0
26.17784,-16359.6,-1232.666,-1814.776,-1589.558,-356.9223,88.43647,0,0
26.21102,-16438.86,-822.9639,-1798.551,-1583.796,-355.6836,359.9524,0,0
26.22761,-16488.14,-875.1095,-1677.169,-1588.248,-534.5167,963.3413,0,0
26.26079,-16423.52,-799.9011,-1740.283,-1587.218,-671.6619,1934.946,0,0
26.29397,-16363.8,-533.1274,-2028.655,-1577.561,-710.1577,2696.656,0,0
26.32715,-16330.17,-506.8588,-2356.949,-1570.184,-723.7888,2810.592,0,0
26.37692,-16215.77,-452.004,-2494.576,-1569,-664.7003,2813.83,0,0
26.4101,-16297.92,-174.7772,-2893.599,-1576.992,-467.8943,2621.57,0,0
26.44328,-16330.96,-196.4387,-2926.899,-1587.557,-470.2645,2614.668,0,0
26.47647,-16213.31,-303.8655,-3074.574,-1582.34,-745.3701,3131.062,0,0
26.49306,-16146.74,59.5942,-3322.875,-1578.347,-460.9793,3110.794,0,0
26.52609,-16168.17,49.48124,-3462.749,-1575.301,-26.71125,2855.549,0,0
26.5926,-16027.58,-82.55068,-3738.761,-1581.848,-151.7335,2905.664,0,0
26.62578,-15990.36,2.699136,-4078.632,-1582.43,30.90987,2500.377,0,0
26.62578,-15978.06,-152.3362,-4265.156,-1578.444,-89.9596,1875.813,0,0
26.67556,-15930.55,-351.2897,-4315.205,-1579.833,-174.5376,1478.822,0,0
26.70874,-16017.88,-392.7673,-4289.671,-1585.332,-827.6611,1722.099,0,0
26.74192,-15993.31,-14.40306,-4467.991,-1576.241,-1826.489,1832.201,0,0
26.74192,-16196.59,646.9167,-4518.587,-1569.293,-3257.223,2086.88,0,0
26.7751,-16307.96,863.1673,-4663.138,-1577.297,-4253.582,3026.667,0,0
26.82487,-16320.97,1892.628,-3277.614,-1579.003,-3552.483,2138.685,0,0
26.85805,-16253.13,1589.451,-3610.973,-1580.314,-4279.564,3070.019,0,0
26.89123,-15810.04,815.284,-5500.102,-1581.318,-4451.262,5470.919,0,0
26.94101,-15504.98,922.2201,-5962.746,-1573.223,-4492.978,6747.139,0,0
26.97419,-15372.74,595.9,-6445.698,-1575.906,-4467.92,7410.865,0,0
27.00737,-15191.37,938.0062,-6938.979,-1573.539,-3945.5,6805.949,0,0
27.04055,-14918.42,770.923,-6842.294,-1571.742,-3933.74,6444.82,0,0
27.1235,-14962.52,934.567,-7421.188,-1574.816,-3823.123,6480.062,0,0
27.1235,-14988.77,1132.932,-8222.835,-1577.18,-3222.493,4366.813,0,0
27.15668,-14551.39,926.6008,-8195.467,-1578.995,-1580.066,1470.027,0,0
27.18986,-14332.67,620.4069,-8388.052,-1575.953,-180.0827,-802.7357,0,0
27.20645,-14391.37,-442.7148,-7881.692,-1569.2,-851.1647,-1845.296,0,0
27.22304,-14524.81,-506.4163,-8062.665,-1564.052,-975.3523,-3014.348,0,0
27.27281,-14564.31,-588.0144,-8322.351,-1569.006,1488.456,-5313.066,0,0
27.30599,-14964.79,-1047.675,-8063.828,-1563.957,1332.689,-6887.883,0,0
27.30599,-15370.28,-1331.644,-6860.081,-1573.415,140.43,-6662.44,0,0
27.35577,-15802.94,-1298.879,-6542.122,-1576.233,-599.2876,-6505.646,0,0
27.38895,-15616.16,-564.1063,-6063.63,-1582.822,-713.0228,-8791.005,0,0
27.42213,-15544.9,-470.2064,-4680.272,-1578.988,-1207.84,-9750.828,0,0
27.45531,-15583.33,-1402.369,-3716.323,-1576.046,-2749.825,-7155.83,0,0
27.48849,-15960.46,-1249.14,-3155.441,-1582.658,-3709.901,-3533.562,0,0
27.53826,-15776.27,-573.3268,-4356.607,-1578.843,-5611.79,-2414.683,0,0
27.57144,-15888.38,-640.1505,-4033.482,-1580.349,-6832.563,-2131.656,0,0
27.6544,-15758.54,-340.4961,-3317.102,-1585.926,-7268.288,-1489.413,0,0
27.6544,-15904.62,-510.9695,-3025.648,-1581.312,-6978.749,-1330.964,0,0
27.68757,-15949.26,-646.6338,-2908.232,-1582.203,-8886.221,-1391.321,0,0
27.72075,-15530.64,-195.9034,-2781.173,-1574.011,-8063.232,-2039.778,0,0
27.72075,-15594.75,-207.8994,-3074.369,-1572.181,-6387.537,-2704.149,0,0
27.77053,-15749.13,-385.8249,-2847.556,-1575.224,-4333.063,-863.1289,0,0
27.8203,-16175.01,-602.843,-3286.383,-1573.128,-1339.425,-135.1068,0,0
27.85348,-16334.73,-999.945,-3355.115,-1580.396,1691.435,1441.731,0,0
27.88667,-16496.41,-1661.424,-4548.157,-1581.522,2177.365,2130.882,0,0
27.91985,-16558.49,-1587.753,-3965.84,-1577.944,2796.559,3583.357,0,0
27.91985,-16364.78,-1597.374,-3862.278,-1570.772,3892.004,3800.76,0,0
27.96962,-16257.19,-1564.545,-4337.073,-1574.159,4820.712,3391.326,0,0
28.0028,-16008.69,-1533.774,-4227.685,-1563.466,4877.599,2605.132,0,0
28.08576,-15902.22,-1425.019,-4274.999,-1559.742,4970.339,2150.429,0,0
28.10235,-15857.13,-1331.151,-4745.705,-1561.361,4789.859,1022.659,0,0
28.10235,-15998.74,-1395.23,-4518.075,-1562.635,4435.503,-910.2411,0,0
28.1853,-15987.18,-1010.765,-3625.601,-1563.638,4623.994,-878.706,0,0
28.21848,-16025.67,-679.3325,-3646.405,-1564.431,4867.499,-248.0224,0,0
28.23507,-16072.5,-555.4934,-3651.815,-1569.49,4716.182,-598.9583,0,0
28.26825,-16231.96,-964.214,-2941.877,-1568.941,4497.868,-111.8459,0,0
28.26825,-16388.7,-1366.497,-3482.66,-1568.529,3775.728,709.4128,0,0
28.33462,-16109.87,-1442.763,-3810.918,-1568.224,2891.901,212.0353,0,0
28.33462,-15955.77,-1438.786,-3926.83,-1563.568,2227.158,-58.53177,0,0
28.38439,-15934.13,-1398.937,-3906.415,-1560.023,1717.893,48.52229,0,0
28.40098,-15968.55,-1302.988,-3957.776,-1557.336,1290.005,297.3946,0,0
28.41757,-15911.76,-1196.503,-4114.904,-1564.174,1002.53,317.2211,0,0
28.45075,-16078.84,-928.2692,-4474.482,-1560.561,239.7449,458.5512,0,0
28.48393,-16090.14,-480.3564,-4542.885,-1566.679,-1021.717,-308.2834,0,0
28.5337,-16078.51,-321.3209,-4726.102,-1566.939,-1785.021,-2410.039,0,0
28.60007,-16124.72,-980.8991,-3575.537,-1562.712,-2713.432,-3465.428,0,0
28.60007,-16272.72,-1214.331,-2626.204,-1563.921,-2775.205,-1825.03,0,0
28.63325,-16226.92,-1432.213,-2245.233,-1573.721,-2120.536,-222.7266,0,0
28.66643,-16200.15,-1418.368,-2560.491,-1567.919,-1372.933,199.5404,0,0
28.7162,-15975.35,-1578.365,-3043.391,-1567.909,-1336.726,420.7316,0,0
28.7162,-15837.66,-1607.496,-3031.843,-1567.903,-1320.432,228.8357,0,0
28.74938,-15917.66,-1568.56,-3113.539,-1567.901,-1111.905,148.8088,0,0
28.78257,-16082.13,-1517.558,-3240.852,-1563.469,-1075.083,74.38167,0,0
28.86552,-16150.27,-1517.33,-3222.128,-1564.519,-767.558,224.6493,0,0
28.86552,-16153.35,-1533.882,-3323.093,-1565.332,-588.4532,332.2882,0,0
28.93188,-16129.89,-1569.946,-3266.141,-1561.53,-446.706,321.2344,0,0
29.01484,-16113.88,-1552.235,-3162.58,-1558.634,-33.18708,201.392,0,0
29.04802,-16163.45,-1628.6,-3189.693,-1552.006,282.4864,142.8912,0,0
29.0812,-16132.4,-1664.979,-3294.578,-1551.398,149.459,148.714,0,0
29.09779,-16080.71,-1667.389,-3312.475,-1550.968,24.97046,73.91962,0,0
29.13097,-16076.49,-1700.343,-3290.27,-1550.673,-17.03456,-94.79533,0,0
29.16415,-16089.8,-1748.906,-3263.962,-1550.48,-140.6052,-147.2294,0,0
29.16415,-16083.28,-1695.261,-3186.903,-1554.795,-5.610694,-216.0237,0,0
29.19733,-16167.93,-1682.078,-3238.407,-1558.119,57.2935,56.75373,0,0
29.19733,-16174.87,-1681.128,-3195.425,-1569.537,13.07599,318.1626,0,0
29.23051,-16195.41,-1612.045,-3190.94,-1573.832,87.75491,321.2859,0,0
29.26369,-16185.35,-1658.279,-3198.177,-1568.231,104.866,330.8002,0,0
29.28029,-16140.82,-1685.276,-3225.412,-1555.069,21.93878,329.1728,0,0
29.31347,-16122.08,-1701.947,-3231.301,-1549.442,80.04329,211.8869,0,0
29.34665,-16154.16,-1701.847,-3209.722,-1545.167,58.23843,230.1434,0,0
29.37983,-16116.52,-1674.542,-3234.712,-1541.934,-10.83213,268.2524,0,0
29.4296,-16088.74,-1681.896,-3199.999,-1548.367,-9.009366,268.88,0,0
29.46278,-16063.04,-1681.461,-3192.746,-1562.184,38.51334,260.7796,0,0
29.54573,-16071.12,-1724.942,-3225.34,-1568.326,21.7737,217.2431,0,0
29.54573,-16079.56,-1738.829,-3109.985,-1564.147,60.2919,202.9256,0,0
29.57891,-16136.99,-1757.751,-3037.798,-1565.369,127.1916,420.4109,0,0
29.61209,-16168.67,-1791.593,-3200.423,-1561.862,136.4703,653.1478,0,0
29.61209,-16073.09,-1824.625,-3254.384,-1563.605,93.04383,670.7859,0,0
29.64527,-16048.7,-1829.299,-3224.993,-1564.933,189.1283,723.9914,0,0
29.67846,-16107.67,-1879.863,-3361.156,-1552.647,236.73,923.4651,0,0
29.72823,-16082.99,-1904.55,-3475.299,-1538.829,90.92236,961.1857,0,0
29.76141,-16126.15,-1948.18,-3464.858,-1546.026,-99.85056,1158.935,0,0
29.79459,-16140.28,-1941.999,-3599.462,-1547.137,-325.4199,1587.964,0,0
29.84436,-16039.1,-1909.925,-3760.631,-1543.584,-399.309,1691.622,0,0
29.84436,-15950.68,-1951.198,-3890.832,-1540.898,-315.1059,1432.516,0,0
29.87754,-15936.49,-1975.454,-3998.173,-1538.88,-290.1218,1116.053,0,0
29.91072,-15881.66,-1958.968,-4036.864,-1550.671,-220.5689,683.9908,0,0
29.9439,-15926.55,-1971.186,-4057.319,-1550.848,-159.7374,385.2504,0,0
29.99368,-15955.71,-1976.586,-4015.096,-1555.424,-176.3717,313.9492,0,0
30.06004,-15907.38,-1945.769,-4012.576,-1554.496,-173.6393,250.219,0,0
30.06004,-15959.34,-1961.551,-3978.493,-1549.356,-162.7443,224.5325,0,0
30.09322,-15929.54,-1981.986,-3964.698,-1549.864,-143.4217,249.6014,0,0
30.17617,-15946.86,-1994.885,-3977.604,-1550.264,-148.1666,219.2712,0,0
30.20935,-15957,-2018.631,-4056.393,-1550.581,-121.4842,113.6036,0,0
30.20935,-15937.24,-2010.774,-4030.4,-1559.694,-126.7528,95.31123,0,0
30.24253,-15948.91,-2027.511,-4019.564,-1562.227,-139.0289,86.58851,0,0
30.25912,-15962.44,-2039.806,-4006.009,-1568.578,-119.8106,16.20555,0,0
30.27571,-15948.55,-2013.249,-3952.785,-1560.115,-131.6412,-41.72462,0,0
30.32549,-15976.84,-2023.504,-3988.997,-1562.486,-86.35032,-25.5052,0,0
30.35867,-15988.61,-2001.016,-3959.592,-1555.423,-105.998,61.79573,0,0
30.39185,-15977.73,-2010.031,-3962.028,-1558.879,-141.8085,94.97595,0,0
30.39185,-15961.71,-1978.915,-3907.997,-1561.519,-147.5366,31.20942,0,0
30.4748,-15956.19,-1963.691,-3856.306,-1559.096,-104.1886,77.50418,1,0
30.4748,-15925.48,-1937.423,-3918.439,-1561.666,-107.565,148.103,1,0
30.50798,-15925.41,-1952.624,-3949.054,-1554.76,-138.9548,115.5324,1,0
30.59093,-15955.43,-1950.806,-3880.151,-1553.908,-103.0951,65.5073,1,0
30.59093,-15931.98,-1932.645,-3919.13,-1557.693,-57.65191,5.260727,1,0
30.62411,-15917.48,-1909.778,-3908.803,-1560.59,-71.99981,-77.09806,1,0
30.67389,-15935.35,-1919.924,-3857.441,-1558.367,-57.03476,-144.9307,1,0
30.69048,-16010.07,-1947.573,-3843.478,-1565.524,-44.85844,-65.2623,1,0
30.69048,-16011.82,-1950.894,-3834.927,-1562.122,-75.82887,55.93189,1,0
30.74025,-15959.92,-1954.421,-3768.507,-1563.937,-73.84103,78.15411,1,0
30.77343,-15946.81,-1984.69,-3731.054,-1565.312,-32.77126,26.46175,1,0
30.83979,-15937.97,-1997.706,-3775.684,-1548.622,-51.32637,40.9715,1,0
30.85638,-15986.69,-1980.874,-3725.739,-1553.592,-90.55788,67.06714,1,0
30.88956,-16001.82,-1991.09,-3759.695,-1548.545,-46.6509,77.58323,1,0
30.92274,-15964.61,-1977.689,-3728.188,-1540.271,-2.057425,41.79047,1,0
31.0057,-15949.44,-1951.786,-3713.094,-1542.838,8.896535,29.32734,1,0
31.0057,-15976.67,-1952.936,-3706.163,-1540.404,23.71202,23.38745,1,0
31.03888,-16014.13,-1948.214,-3748.691,-1551.87,53.64711,25.48738,1,0
31.07206,-16030.55,-1940.118,-3756.972,-1547.363,20.60163,45.90874,1,0
31.08865,-16003.11,-1912.844,-3760.053,-1543.928,8.3883,50.10818,1,0
31.10524,-15955.47,-1928.558,-3763.573,-1545.754,16.3207,77.86942,1,0
31.13842,-15994.38,-1928.404,-3724.213,-1542.739,27.20606,85.09995,1,0
31.18819,-15970.98,-1941.58,-3727.442,-1540.455,-2.868105,97.08195,1,0
31.22138,-15980.77,-1959.392,-3774.345,-1538.735,-20.18753,77.21967,1,0
31.22138,-16002.68,-1966.313,-3790.317,-1533.018,-51.78835,50.74403,1,0
31.27115,-16034.91,-1947.156,-3777.029,-1546.409,-99.50799,85.17701,1,0
31.30433,-16010.73,-1971.227,-3743.586,-1552.239,-116.8069,125.4457,1,0
31.33751,-15973.32,-1971.844,-3746.857,-1552.267,-118.8105,231.8441,1,0
31.37069,-15960.21,-1981.094,-3794.845,-1547.851,-207.7016,178.1444,1,0
31.40387,-15961.32,-1983.642,-3775.037,-1540.045,-355.9962,48.80692,1,0
31.45364,-15968.87,-1946.717,-3653.517,-1542.954,-312.927,139.6517,1,0
31.52,-16006.81,-1960.53,-3729.14,-1545.196,-251.147,272.8512,1,0
31.53659,-15970.44,-1983.251,-3783.81,-1546.923,-270.4891,443.4305,1,0
31.55318,-15989.16,-1970.644,-3795.714,-1552.681,-295.9768,501.0015,1,0
31.60295,-15908.2,-2034.047,-3823.591,-1552.649,-289.8513,474.7176,1,0
31.60295,-15923.94,-1989.334,-3813.784,-1552.616,-321.5958,509.2412,1,0
31.63614,-15933.91,-1992.674,-3853.807,-1543.72,-395.3008,428.8215,1,0
31.66932,-15915.05,-2007.326,-3901.985,-1536.922,-414.0222,368.0819,1,0
31.7025,-15929.56,-1985.19,-3893.159,-1545.04,-378.9999,424.2272,1,0
31.75227,-15942.98,-1992.551,-3948.18,-1537.97,-371.6277,392.2323,1,0
31.78545,-15903.47,-2012.513,-3935.652,-1550.305,-368.5783,355.7198,1,0
31.78545,-15911.03,-1951.241,-3862.59,-1546.45,-295.4789,326.9343,1,0
31.83522,-15889.24,-1997.414,-3876.306,-1547.933,-170.0473,284.4854,1,0
31.85181,-15890.46,-1970.653,-3926.531,-1540.206,-128.0989,162.1711,1,0
31.90158,-15920.35,-1965.661,-3879.42,-1543.169,-110.287,-121.5342,1,0
31.93477,-15939.99,-1988.428,-3825.48,-1536.586,-171.0867,-190.8271,1,0
31.96795,-15979.43,-1889.49,-3822.946,-1536.001,-183.9117,-108.8465,1,0
32.01772,-16037.25,-1870.416,-3828.762,-1540.009,-215.9129,-40.62269,1,0
32.0509,-16046.98,-1880.405,-3871.975,-1547.524,-301.2932,68.93093,1,0
32.08408,-15998.83,-1838.386,-3859.528,-1539.979,-324.0428,84.93524,1,0
32.08408,-16010.61,-1865.201,-3862.105,-1543.078,-355.8484,183.7962,1,0
32.15045,-15978.54,-1894.791,-3862.889,-1549.888,-362.9563,192.1463,1,0
32.20022,-15943.98,-1856.632,-3884.46,-1546.229,-292.7192,58.33727,1,0
32.20022,-15966.31,-1916.238,-3865.402,-1543.425,-291.1204,-37.77063,1,0
32.24999,-15931.35,-1906.532,-3840.767,-1545.715,-328.7967,-35.00513,1,0
32.26659,-15913.52,-1860.395,-3758.748,-1547.467,-322.7956,-107.227,1,0
32.31636,-15924.36,-1903.893,-3755.954,-1544.373,-352.8927,-66.11719,1,0
32.34954,-15928.32,-1908.456,-3753.996,-1550.869,-372.0738,-121.9787,1,0
32.38272,-15928.1,-1886.516,-3758.212,-1542.536,-378.1574,-544.4442,1,0
32.46566,-15986.71,-1890.859,-3525.634,-1540.595,-304.4226,-784.4125,1,0
32.48225,-16068.08,-1946.331,-3450.168,-1539.121,-314.8851,-551.8174,1,0
32.49884,-16045.92,-1907.879,-3509.543,-1546.869,-313.9133,-506.688,1,0
32.53202,-16021.01,-1923.894,-3474.79,-1543.935,-330.5056,-603.8983,1,0
32.53202,-16030.61,-1956.094,-3360.254,-1537.26,-288.7832,-439.3707,1,0
32.5652,-16075.48,-1955.191,-3396.452,-1536.598,-281.1707,-345.7554,1,0
32.64816,-16063.08,-1944.457,-3403.915,-1531.679,-255.6609,-263.5037,1,0
32.71452,-16071.11,-1943.95,-3308.442,-1532.374,-260.2672,-181.3194,1,0
32.76429,-16075.94,-1931.336,-3298.295,-1528.501,-263.2711,-100.5106,1,0
32.79747,-16082.76,-1944.935,-3296.955,-1525.569,-297.7196,-59.17482,1,0
32.83065,-16061.18,-1969.71,-3274.617,-1532.226,-323.4816,-21.2948,1,0
32.88042,-16092.15,-1938.733,-3323.725,-1537.344,-359.7057,-120.1875,1,0
32.9136,-16063.58,-1954.878,-3348.719,-1536.84,-374.5042,-360.3937,1,0
33.02974,-15987.3,-1941.707,-3357.368,-1540.894,-326.0685,-756.9772,1,0
33.06292,-16040.83,-1972.59,-3211.648,-1539.565,-241.2508,-1337.473,1,0
33.0961,-16153.75,-2160.101,-2920.351,-1538.549,-302.7079,-1133.307,1,0
33.12929,-16183.37,-2097.093,-2949.167,-1533.344,-372.7119,-728.8885,1,0
33.17906,-16166.9,-2052.926,-2986.977,-1538.237,-372.6576,-631.1261,1,0
33.21223,-16151.73,-2079.808,-2884.171,-1528.693,-336.9732,-504.2496,1,0
33.2786,-16184.16,-2015.918,-2825.644,-1530.274,-256.6548,-376.4739,1,0
33.32837,-16177.64,-2086.529,-2784.468,-1513.781,-193.0385,-199.0404,1,0
33.36155,-16152.4,-2117.058,-2738.87,-1514.505,-153.7115,-45.77185,1,0
33.39473,-16122.88,-2134.564,-2775.216,-1528.407,-102.8749,88.92415,1,0
33.47768,-16116.75,-2199.68,-2879.677,-1525.775,-168.2332,111.3524,1,0
33.51086,-16127.44,-2159.319,-2862.048,-1532.646,-239.0201,-36.65316,1,0
33.54392,-16148.79,-2094.813,-2658.974,-1533.481,-219.6181,-167.6936,1,0
33.59382,-16153.87,-2084.003,-2551.404,-1534.124,-69.99507,-232.2277,1,0
33.627,-16144.28,-2211.83,-2650.076,-1539.049,-42.84983,-119.107,1,0
33.66018,-16091.37,-2229.493,-2716.91,-1542.81,-62.16557,-184.2864,1,0
33.74313,-16048.63,-2228.148,-2735.874,-1541.24,-41.92892,-534.5406,1,0
33.77631,-16131.19,-2235.542,-2524.214,-1535.592,-28.8201,-700.3796,1,0
33.80949,-16197.62,-2312.78,-2397.862,-1535.699,-87.36665,-384.8387,1,0
33.85927,-16199.48,-2165.277,-2421.246,-1531.35,-128.3307,-147.4078,1,0
33.92563,-16225.01,-2209.436,-2405.153,-1541.324,-210.001,51.79261,1,0
33.95881,-16199.95,-2143.244,-2476.217,-1544.516,-230.4113,284.4099,1,0
34.02517,-16163.92,-2113.483,-2527.361,-1529.215,-170.9108,196.7468,1,0
34.07494,-16188.27,-2157.114,-2599.623,-1526.378,-134.5618,92.05738,1,0
34.10813,-16176.82,-2141.628,-2522.767,-1528.659,-134.024,-15.67083,1,0
34.1579,-16152.41,-2137.42,-2486.965,-1534.854,-89.4459,-50.37692,1,0
34.19108,-16160.22,-2192.822,-2460.478,-1539.597,-85.1902,-75.59294,1,0
34.22409,-16169.44,-2227.273,-2410.115,-1534.355,-123.4377,-2.62558,1,0
34.29062,-16137.62,-2169.173,-2422.408,-1539.206,-110.763,54.5196,1,0
34.3404,-16134.28,-2205.424,-2499.209,-1538.48,-121.711,8.872513,1,0
34.37358,-16161.61,-2187.551,-2493.34,-1537.917,-148.7733,-16.47414,1,0
34.45654,-16186.9,-2118.319,-2478.43,-1537.479,-160.408,133.8816,1,0
34.48971,-16151.84,-2134.009,-2473.212,-1532.71,-138.32,158.3733,1,0
34.55608,-16143.78,-2131.6,-2475.392,-1524.633,-115.6646,62.92718,1,0
34.58926,-16158.63,-2141.927,-2411.188,-1531.769,-105.0872,39.03248,1,0
34.63938,-16174.38,-2157.55,-2392.652,-1528.379,-92.97517,44.24619,1,0
34.67256,-16187.46,-2187.165,-2398.01,-1530.229,-130.9449,-6.347452,1,0
34.7058,-16154.15,-2186.437,-2324.125,-1527.224,-126.293,-53.28458,1,0
34.7888,-16165.17,-2151.408,-2351.442,-1524.941,-120.032,-52.43505,1,0
34.822,-16183.52,-2159.997,-2285.536,-1527.645,-97.31757,-58.75331,1,0
34.8718,-16167.57,-2197.534,-2320.078,-1529.728,-110.7977,20.02073,1,0
34.905,-16158.62,-2138.615,-2370.476,-1526.901,-82.7146,58.52245,1,0
34.9382,-16132.91,-2116.77,-2343.124,-1524.75,-53.05611,-38.85638,1,0
35.0046,-16177.51,-2165.46,-2313.881,-1523.121,-38.03947,-23.4547,1,0
35.08759,-16165.05,-2155.043,-2306.493,-1530.758,-22.34882,7.645805,1,0
35.1208,-16172.1,-2155.894,-2265.971,-1536.607,-49.37048,80.60814,1,0
35.17059,-16137.55,-2146.542,-2289.875,-1541.074,-75.50682,122.3139,1,0
35.23699,-16154.33,-2134.938,-2259.991,-1540.041,-85.38368,77.96798,1,0
35.27019,-16183.79,-2150.443,-2235.489,-1539.232,-60.07103,57.03831,1,0
35.30339,-16154.2,-2112.444,-2315.943,-1534.166,-34.73378,96.47659,1,0
35.38639,-16165.88,-2183.121,-2310.366,-1534.715,-44.87999,10.89999,1,0
35.41959,-16159.28,-2171.778,-2196.809,-1530.701,-79.94546,-79.34071,1,0
35.46939,-16177.47,-2211.767,-2142.62,-1527.634,-138.4308,158.8532,1,0
35.50259,-16190.23,-2187.945,-2287.967,-1529.729,-132.1746,324.4745,1,0
35.56898,-16142.32,-2188.444,-2336.456,-1526.91,-97.96755,109.5704,1,0
35.61879,-16143.33,-2182.089,-2317.294,-1524.765,-73.46187,114.8296,1,0
35.65199,-16143.02,-2194.878,-2305.079,-1523.141,-46.47102,89.81645,1,0
35.68518,-16197.09,-2179.095,-2233.947,-1517.486,-47.82457,63.85272,1,0
35.71838,-16215.14,-2141.477,-2140.012,-1522.052,-34.03569,-0.9873549,1,0
35.76818,-16203.33,-2191.366,-2140.706,-1516.707,-36.92686,99.53815,1,0
35.83458,-16205.27,-2146.399,-2206.067,-1530.37,-66.97583,87.98576,1,0
35.91758,-16259.82,-2119.752,-2110.272,-1527.537,-80.07482,-7.685209,1,0
35.95026,-16187.26,-2062.883,-2213.659,-1525.371,-90.9619,123.8225,1,0
36.03321,-16207,-2181.299,-2216.699,-1514.861,-80.74139,151.18,1,0
36.0498,-16198.75,-2207.644,-2208.24,-1529.003,-80.41665,170.191,1,0
36.09958,-16184.63,-2218.824,-2241.94,-1526.536,-80.19085,170.3185,1,0
36.13276,-16189.3,-2228.342,-2228.062,-1524.651,-94.99545,72.08727,1,0
36.21571,-16242.69,-2200.015,-2192.176,-1518.786,-104.1014,135.863,1,0
36.24889,-16185.93,-2233.628,-2322.301,-1514.317,-56.47917,242.1138,1,0
36.28207,-16180.11,-2260.31,-2367.622,-1506.495,-89.05592,102.3093,1,0
36.33185,-16187.85,-2212.947,-2233.801,-1504.985,-92.11876,61.93313,1,0
36.39821,-16172.7,-2231.979,-2266.674,-1499.447,-63.43635,168.6883,1,0
36.4314,-16155.58,-2195.461,-2303.023,-1504.129,-36.54881,130.2814,1,0
36.48117,-16197.92,-2250.545,-2305.383,-1498.896,-9.711392,16.00134,1,0
36.51435,-16174.91,-2283.694,-2185.332,-1503.807,10.10681,34.16963,1,0
36.54753,-16173.91,-2255.664,-2266.515,-1503.177,14.81993,50.39843,1,0
36.58072,-16217.48,-2270.603,-2165.906,-1507.165,-39.66776,-70.88521,1,0
36.63049,-16202,-2243.084,-2106.907,-1510.246,-33.82541,-28.8107,1,0
36.69685,-16183.45,-2293.913,-2171.84,-1517.056,-32.4806,30.21637,1,0
36.73004,-16178.11,-2294.944,-2105.496,-1517.841,-37.34765,43.91147,1,0
36.77981,-16193.97,-2312.137,-2124.889,-1509.579,-46.40113,44.46183,1,0
36.84617,-16193.9,-2306.228,-2058.091,-1512.135,-32.04771,47.68385,1,0
36.87935,-16199.36,-2284.872,-2092.718,-1518.536,-0.3575021,-38.45179,1,0
36.96231,-16222.33,-2259.506,-1923.512,-1519.002,67.24613,-134.0911,1,0
36.99548,-16232.08,-2263.264,-2001.858,-1519.354,67.20155,13.29438,1,0
37.02867,-16239.43,-2311.474,-2005.865,-1519.619,7.067033,11.5541,1,0
37.07845,-16203.96,-2288.371,-1925.22,-1524.248,-31.0666,48.7835,1,0
37.14481,-16244.34,-2258.363,-1998.158,-1518.913,-47.27185,74.7709,1,0
37.17799,-16291.75,-2234.226,-1993.512,-1519.257,-59.66356,112.3076,1,0
37.22777,-16272.44,-2204.675,-2030.258,-1515.086,-13.16255,112.9061,1,0
37.26095,-16271.88,-2204.281,-2022.147,-1520.762,-4.489097,99.90785,1,0
37.29413,-16266.87,-2242.826,-2082.717,-1520.669,19.79233,211.4138,1,0
37.37709,-16250.7,-2206.958,-2038.407,-1516.161,31.87697,105.0391,1,0
37.41027,-16274.79,-2236.058,-2004.728,-1517.145,7.460314,77.76382,1,0
37.47663,-16278.68,-2273.84,-2070.094,-1509.038,-21.57447,183.4097,1,0
37.52641,-16226.13,-2210.725,-2060.465,-1516.145,-42.9932,143.8202,1,0
37.55959,-16223.54,-2220.062,-2046.601,-1508.297,-59.08239,121.3629,1,0
37.60936,-16206.05,-2221.705,-2090.45,-1515.603,-64.68456,203.7578,1,0
37.64255,-16176.07,-2246.254,-2048.76,-1507.906,-70.55604,203.6775,1,0
37.70891,-16198.64,-2232.892,-2013.677,-1502.034,-90.19482,191.4224,1,0
37.7421,-16215.97,-2211.584,-2006.991,-1502.003,-98.73131,180.1374,1,0
37.82505,-16204.87,-2173.163,-1997.679,-1510.874,-102.9081,148.033,1,0
37.85823,-16155.41,-2173.795,-1961.994,-1504.382,-59.70948,157.4036,1,0
37.90801,-16170.85,-2189.919,-1903.971,-1508.297,-61.49325,86.07318,1,0
37.94119,-16183.89,-2231.153,-2009.535,-1506.878,-71.40717,175.242,1,0
37.97437,-16202.79,-2206.209,-1996.365,-1501.376,-54.29066,211.5026,1,0
38.00755,-16199.56,-2248.082,-1982.035,-1514.916,-66.64922,200.251,1,0
38.09051,-16198.21,-2218.047,-1969.057,-1516.416,-75.51476,186.7248,1,0
38.12369,-16200.53,-2231.622,-1931.653,-1517.556,-75.59413,137.7122,1,0
38.15687,-16183.48,-2264.155,-1955.385,-1513.987,-67.28754,119.813,1,0
38.20664,-16177.14,-2238.012,-2019.208,-1515.683,-85.54007,69.00664,1,0
38.23983,-16215.55,-2241.232,-1927.452,-1516.976,-150.6748,-65.31338,1,0
38.33937,-16228.32,-2198.245,-1978.227,-1513.526,-168.7481,84.0295,1,0
38.38915,-16202.59,-2219.683,-1977.37,-1524.179,-130.539,90.15559,1,0
38.42233,-16190.65,-2238.329,-1909.276,-1519.017,-78.97361,88.24432,1,0
38.45551,-16198.16,-2241.5,-1965.994,-1510.621,-76.85692,168.2515,1,0
38.50529,-16181.78,-2232.815,-1882.167,-1508.633,-65.80433,64.02686,1,0
38.53847,-16204.73,-2233.907,-1853.764,-1511.556,-50.98314,154.9345,1,0
38.57165,-16192.4,-2239.16,-1925.454,-1518.23,-44.94287,182.3334,1,0
38.63802,-16190.73,-2248.695,-1838.738,-1514.468,-23.20482,104.2699,1,0
38.68779,-16202.78,-2237.116,-1899.015,-1507.155,-6.943408,139.5154,1,0
38.73756,-16197.6,-2233.773,-1923.234,-1501.572,0.6606549,71.44725,1,0
38.75415,-16221.34,-2194.647,-1851.09,-1492.894,-46.56405,19.9857,1,0
38.87029,-16309.27,-2179.175,-1899.189,-1495.16,-89.12257,90.75198,1,0
38.90348,-16292.15,-2135.319,-1815.451,-1488.072,-90.06316,43.33633,1,0
38.95303,-16233.42,-2110.816,-1844.759,-1487.131,-79.07947,83.61944,1,0
38.98643,-16223.85,-2156.568,-1835.355,-1482.032,-85.85979,18.13135,1,0
39.01961,-16210.97,-2157.396,-1745.356,-1491.485,-68.00887,106.9395,1,0
39.06939,-16216.62,-2148.188,-1797.681,-1489.897,-81.74857,-2.609105,1,0
39.13575,-16216.52,-2088.106,-1782.69,-1488.719,-101.6432,-17.29025,1,0
39.16893,-16185.41,-2129.896,-1785.963,-1496.719,-75.80045,136.238,1,0
39.25189,-16194.9,-2112.206,-1857.478,-1507.294,-78.14805,66.73286,1,0
39.28508,-16219.94,-2134.306,-1866.952,-1506.52,-69.95007,126.8391,1,0
39.31826,-16199.21,-2166.87,-1872.096,-1505.922,-86.10159,179.1393,1,0
39.36803,-16208.85,-2173.02,-1784.175,-1496.597,-134.9838,68.03496,1,0
39.43439,-16236.18,-2188.837,-1757.026,-1502.769,-141.7918,159.1678,1,0
39.46758,-16203.87,-2171.028,-1788.646,-1498.635,-118.5919,181.1559,1,0
39.51735,-16193.56,-2174.043,-1814.21,-1495.482,-76.07961,123.5695,1,0
39.55053,-16184.6,-2164.191,-1715.421,-1488.656,-70.95338,115.1507,1,0
39.58371,-16216.58,-2168.881,-1765.357,-1492.326,-66.49314,146.064,1,0
39.61689,-16221.1,-2182.475,-1738.488,-1495.159,-64.76803,191.7896,1,0
39.66667,-16247.81,-2169.619,-1653.967,-1488.482,-86.188,199.1795,1,0
39.76622,-16257.1,-2159.804,-1725.999,-1492.262,-79.02659,192.4421,1,0
39.7994,-16274.07,-2150.126,-1782.553,-1495.176,-87.11024,120.9097,1,0
39.84917,-16245.94,-2139.463,-1710.784,-1497.419,-80.53757,163.0684,1,0
39.88235,-16229.88,-2138.038,-1750.297,-1494.712,-53.89706,182.2303,1,0
39.91553,-16239.71,-2139.253,-1624.544,-1483.788,-42.41893,175.4351,1,0
39.96531,-16252.73,-2145.806,-1701.553,-1479.892,-45.06717,213.5955,1,0
39.99849,-16268.17,-2180.797,-1635.607,-1481.385,-43.28872,184.1759,1,0
40.06485,-16262.16,-2190.949,-1647.561,-1478.135,-49.47606,114.7238,1,0
40.11463,-16270.77,-2155.471,-1661.507,-1480.121,-58.97456,134.4336,1,0
40.14781,-16306.06,-2188.168,-1746.716,-1477.248,-71.81377,193.5617,1,0
40.181,-16285.27,-2169.96,-1753.334,-1483.952,-84.40943,172.7821,1,0
40.23077,-16283.63,-2162.67,-1790.595,-1480.246,-79.06404,148.7573,1,0
40.29713,-16261.21,-2165.974,-1788.083,-1490.733,-87.41409,159.1441,1,0
40.38008,-16218.52,-2103.157,-1756.23,-1489.905,-92.93827,74.27427,1,0
40.41326,-16223.55,-2164.894,-1713.068,-1489.276,-105.7041,108.3214,1,0
40.44645,-16248.49,-2154.565,-1834.161,-1493.234,-101.2772,90.42606,1,0
40.47943,-16295.26,-2155.55,-1751.711,-1487.399,-79.26949,0.1168479,1,0
40.5294,-16263.37,-2137.498,-1628.823,-1482.942,-95.64592,10.76974,1,0
40.56258,-16262.16,-2132.606,-1628.138,-1475.12,-97.893,-105.7042,1,0
40.62895,-16268.94,-2137.799,-1629.056,-1478.031,-100.3965,-2.978819,1,0
40.66213,-16240.85,-2162.883,-1672.171,-1471.428,-95.33851,93.94122,1,0
40.74509,-16247.04,-2145.528,-1655.527,-1470.846,-96.96831,2.275559,1,0
40.79486,-16272.83,-2165.511,-1717.23,-1470.444,-87.37697,107.3546,1,0
40.81145,-16240.45,-2183.017,-1648.22,-1474.608,-68.3877,99.43688,1,0
40.86123,-16265.52,-2191.937,-1707.493,-1486.688,-89.05312,126.877,1,0
40.89441,-16278.03,-2190.941,-1693.127,-1495.936,-87.96419,95.47079,1,0
40.94418,-16273.13,-2185.683,-1610.222,-1494.132,-72.43726,107.7094,1,0
40.97736,-16254.92,-2158.344,-1646.738,-1501.595,-79.681,136.7201,0,0
41.04373,-16242.08,-2173.988,-1652.731,-1485.119,-77.47737,59.13958,0,0
41.07691,-16273.26,-2171.545,-1610.957,-1476.941,-92.41663,73.50352,0,0
41.12668,-16315.91,-2137.537,-1609.137,-1470.705,-143.4331,71.54359,0,0
41.15987,-16300.79,-2166.956,-1555.922,-1474.832,-120.8667,43.23835,0,0
41.24282,-16335.62,-2192.801,-1538.797,-1469.157,-64.45311,55.19996,0,0
41.30919,-16311.15,-2170.428,-1586.992,-1469.281,-95.81161,91.31158,0,0
41.34219,-16270.14,-2188.738,-1605.306,-1473.845,-106.7827,55.81485,0,0
41.39214,-16249.81,-2193.844,-1588.496,-1472.931,-124.5515,113.4644,0,0
41.40873,-16252,-2191.046,-1539.283,-1467.825,-106.4969,137.6066,0,0
41.45851,-16234.88,-2156.725,-1547.341,-1472.813,-75.18491,160.9638,0,0
41.50829,-16231.81,-2164.822,-1536.07,-1467.792,-81.15695,115.8177,0,0
41.57459,-16258.33,-2153.309,-1523.303,-1472.842,-99.59784,37.99891,0,0
41.60782,-16243.19,-2178.874,-1583.627,-1467.864,-131.4184,179.3443,0,0
41.64101,-16227.21,-2141.927,-1580.114,-1464.082,-106.6643,150.5553,0,0
41.69115,-16250.5,-2139.182,-1552.093,-1474.517,-82.1368,125.3425,0,0
41.75751,-16257.28,-2158.196,-1581.802,-1469.223,-57.01216,144.4773,0,0
41.80724,-16251.38,-2173.882,-1551.5,-1474.053,-56.6911,131.0582,0,0
41.87358,-16236.92,-2163.717,-1550.644,-1477.761,-83.66667,102.7204,0,0
41.95652,-16261.34,-2139.323,-1474.838,-1480.6,-99.07129,70.50774,0,0
41.97311,-16232.38,-2128.462,-1536.788,-1487.198,-80.93016,144.523,0,0
42.02287,-16233.54,-2130.203,-1538.986,-1474.503,-102.5083,23.8523,0,0
42.05604,-16266.6,-2151.553,-1591.798,-1482.516,-96.56404,42.70976,0,0
42.08922,-16217.66,-2129.149,-1678.797,-1479.779,-102.5193,40.67297,0,0
42.17216,-16272.22,-2163.028,-1646.642,-1482.112,-132.5282,-20.84687,0,0
42.25508,-16256.34,-2144.645,-1640.766,-1483.889,-119.4019,93.51,0,0
42.27168,-16233.1,-2174.916,-1611.825,-1476.375,-104.3027,56.434,0,0
42.32144,-16233.08,-2180.329,-1568.619,-1470.628,-91.05554,-1.233564,0,0
42.35462,-16304.01,-2193.285,-1573.308,-1479.54,-92.55299,43.16898,0,0
42.40438,-16300.59,-2214.205,-1560.369,-1481.93,-79.30285,87.78561,0,0
42.47073,-16300.07,-2189.111,-1551.684,-1483.752,-75.28615,84.26541,0,0
42.5039,-16308.44,-2170.946,-1506.389,-1480.704,-70.8693,80.73093,0,0
42.55366,-16280.39,-2181.398,-1464.181,-1478.365,-69.7545,152.8021,0,0
42.5872,-16295.42,-2192.689,-1501.971,-1467.714,-69.22919,133.3162,0,0
42.62038,-16292.46,-2204.598,-1425.874,-1464.016,-61.67594,214.6602,0,0
42.65353,-16304.52,-2213.631,-1474.334,-1465.65,-74.23614,179.4333,0,0
42.70327,-16339.15,-2219.338,-1497.281,-1453.636,-78.89974,176.9078,0,0
42.76959,-16315.64,-2206.981,-1478.467,-1471.079,-99.10634,201.9313,0,0
42.81935,-16305.29,-2204.092,-1505.259,-1471.152,-87.40678,219.1969,0,0
42.8525,-16286.22,-2179.66,-1515.937,-1471.218,-92.57207,170.1187,0,0
42.88566,-16304.83,-2195.293,-1459.962,-1471.278,-74.6348,162.5974,0,0
42.91883,-16255.87,-2218.302,-1468.289,-1466.901,-39.60523,212.1238,0,0
42.96857,-16260.53,-2252.447,-1521.388,-1472.431,-38.65143,220.7492,0,0
43.0349,-16264.13,-2225.249,-1462.402,-1467.807,-41.07534,235.4371,0,0
43.06805,-16258.06,-2216.516,-1517.135,-1468.713,-49.39719,222.8952,0,0
43.11781,-16283.37,-2200.899,-1485.984,-1464.987,-52.51666,166.2831,0,0
43.15097,-16312.69,-2166.759,-1464.472,-1471.017,-41.67108,159.1581,0,0
43.23424,-16298.5,-2179.447,-1555.628,-1471.208,-26.52485,223.7333,0,0
43.26741,-16277.61,-2175.891,-1543.391,-1466.926,-26.11889,137.8367,0,0
43.33385,-16266.05,-2170.983,-1493.009,-1468.094,-12.06851,149.3609,0,0
43.36705,-16266.09,-2176.127,-1514.35,-1464.567,4.647353,150.1498,0,0
43.41682,-16298.28,-2173.444,-1479.772,-1470.747,-19.27853,108.0983,0,0
43.43341,-16273.02,-2142.618,-1488.867,-1466.619,-47.39316,283.4314,0,0
43.4832,-16231.54,-2141.272,-1472.659,-1459.039,-13.55909,281.9272,0,0
43.5164,-16250.84,-2129.263,-1525.735,-1462.128,36.61153,279.3626,0,0
43.59938,-16269.01,-2166.718,-1619.542,-1464.513,78.40643,229.4815,0,0
43.63257,-16292.9,-2152.22,-1589.223,-1466.353,92.6528,201.6642,0,0
43.71555,-16274.59,-2163.334,-1645.624,-1463.34,88.55821,182.7838,0,0
43.74873,-16266.11,-2140.855,-1532.339,-1461.047,87.61881,133.9607,0,0
43.78193,-16250.77,-2073.874,-1546.42,-1463.743,109.0546,117.9953,0,0
43.86491,-16235.76,-2100.369,-1552.75,-1465.82,90.53553,125.2828,0,0
43.8981,-16188.91,-2125.248,-1549.808,-1467.417,97.42884,158.9363,0,0
43.93129,-16204.18,-2116.694,-1541.99,-1473.073,94.4211,104.1275,0,0
43.98107,-16207.17,-2120.222,-1514.95,-1472.963,108.2252,138.4674,0,0
44.01426,-16242.82,-2108.615,-1531.969,-1464.005,103.0329,184.4802,0,0
44.04746,-16290.1,-2099.843,-1541.693,-1461.589,107.6932,136.8466,0,0
44.16361,-16295.21,-2103.226,-1523.65,-1459.756,124.3303,133.6672,0,0
44.19682,-16304.58,-2115.901,-1597.385,-1462.804,147.3416,76.46005,0,0
44.23001,-16287.28,-2092.45,-1474.237,-1465.15,229.4754,38.66867,0,0
44.2798,-16264.01,-2189.835,-1536.302,-1471.383,180.8361,208.027,0,0
44.31298,-16237.33,-2149.082,-1559.454,-1471.714,201.1465,221.5186,0,0
44.34618,-16286.77,-2183.231,-1584.883,-1467.528,210.5227,214.5111,0,0
44.37936,-16265.85,-2155.009,-1508.972,-1464.323,183.8293,235.5919,0,0
44.46235,-16249.84,-2194.314,-1549.517,-1461.877,216.0098,259.8587,0,0
44.49553,-16243.15,-2223.194,-1545.088,-1460.017,239.4804,172.1367,0,0
44.52872,-16199.31,-2224.089,-1538.36,-1454.18,247.6595,217.9552,0,0
44.57851,-16206.89,-2291.08,-1509.948,-1463.034,275.4269,155.4336,0,0
44.61169,-16208.38,-2304.396,-1569.134,-1469.821,275.4975,199.5463,0,0
44.69467,-16217.39,-2266.629,-1544.587,-1466.147,241.0901,173.7091,0,0
44.79424,-16180.07,-2267.402,-1514.703,-1463.333,250.4557,185.4939,0,0
44.84403,-16178.25,-2334.254,-1561.673,-1470.048,255.3898,146.5728,0,0
44.87721,-16218.01,-2383.979,-1545.516,-1470.749,238.6568,131.5118,0,0
44.91041,-16237.44,-2393.903,-1532.024,-1471.276,216.4675,144.1689,0,0
44.96019,-16258.98,-2429.852,-1537.222,-1467.236,172.1646,170.5367,0,0
44.99338,-16272.11,-2407.014,-1485.818,-1473.004,150.3711,133.3907,0,0
45.09295,-16287.63,-2399.068,-1487.575,-1472.975,154.7304,173.7141,0,0
45.12616,-16321.57,-2393.704,-1505.655,-1481.801,161.6566,148.9037,0,0
45.17593,-16285.35,-2390.352,-1484.115,-1470.801,133.9749,255.4071,0,0
45.20912,-16269.72,-2389.675,-1533.098,-1462.372,88.16985,247.5641,0,0
45.2589,-16277.65,-2378.881,-1501.912,-1464.794,98.66325,221.9889,0,0
45.2921,-16279.24,-2380.324,-1445.973,-1466.657,145.8612,305.5966,0,0
45.35848,-16256.03,-2406.657,-1464.266,-1468.087,230.7384,333.3064,0,0
45.39167,-16221.64,-2420.98,-1503.893,-1469.181,226.561,380.4805,0,0
45.44146,-16247.46,-2409.474,-1525.412,-1465.584,184.1269,410.6167,0,0
45.47465,-16212.97,-2387.098,-1586.188,-1462.835,122.2043,410.4891,0,0
45.52444,-16217.67,-2400.779,-1583.823,-1460.742,108.3785,399.9564,0,0
45.624,-16198.09,-2406.598,-1664.953,-1454.725,89.31236,401.7248,0,0
45.65719,-16203.16,-2395.318,-1676.896,-1454.578,61.28785,456.1353,0,0
45.69037,-16203.83,-2505.029,-1798.698,-1463.356,31.44761,465.1685,0,0
45.74017,-16203.33,-2508.834,-1756.201,-1452.359,16.06284,371.333,0,0
45.80655,-16216.33,-2520.189,-1763.069,-1443.969,11.21457,379.2772,0,0
45.83974,-16226.35,-2490.792,-1744.599,-1446.458,63.45008,293.7155,0,0
45.92272,-16189.73,-2525.557,-1736.711,-1443.973,93.06332,287.1586,0,0
45.95591,-16199.48,-2544.026,-1765.767,-1455.409,79.79704,290.7076,0,0
46.0057,-16185.98,-2542.24,-1818.631,-1455.318,74.16105,255.1824,0,0
46.0389,-16203.45,-2567.07,-1891.837,-1455.263,-52.74484,238.2903,0,0
46.07208,-16171.47,-2546.881,-1793.254,-1459.665,-112.1327,97.50343,0,0
46.1548,-16174.82,-2542.145,-1762.809,-1449.745,-97.54716,95.37289,0,0
46.22144,-16155.35,-2499.421,-1756.934,-1437.744,-64.60305,66.45545,0,0
46.25463,-16174.95,-2493.089,-1681.279,-1437.47,13.86725,78.27956,0,0
46.30425,-16191.17,-2484.739,-1726.313,-1441.743,70.4929,143.9559,0,0
46.33755,-16197,-2505.892,-1749.55,-1449.483,91.41713,87.56389,0,0
46.37079,-16197.08,-2542.945,-1793.717,-1446.564,58.64487,94.0268,0,0
46.42057,-16179.46,-2538.923,-1769.624,-1448.784,21.67264,123.3803,0,0
46.48695,-16185.98,-2535.599,-1768.669,-1450.5,-0.9814137,103.7058,0,0
46.55334,-16191.04,-2522.861,-1754.428,-1447.395,-14.56344,72.28138,0,0
46.60313,-16192.75,-2527.33,-1730.06,-1449.467,-25.60712,91.74203,0,0
46.63632,-16212.93,-2535.003,-1773.335,-1446.634,-33.58358,108.0046,0,0
46.66951,-16169.65,-2521.856,-1708.783,-1448.915,-17.04771,43.11141,0,0
46.7193,-16166.52,-2482.841,-1690.339,-1446.242,-27.76779,19.52347,0,0
46.75249,-16175.29,-2489.479,-1626.376,-1444.214,-46.32432,23.72231,0,0
46.81887,-16161.03,-2491.178,-1646.244,-1442.682,-66.13873,51.65875,0,0
46.85206,-16155.75,-2489.097,-1570.723,-1445.964,-92.14303,-12.54154,0,0
46.90186,-16176.18,-2505.176,-1504.313,-1448.492,-86.00425,74.68538,0,0
46.93504,-16188.56,-2543.989,-1505.951,-1446.004,-65.25486,113.1207,0,0
46.98482,-16177,-2531.436,-1561.881,-1444.113,-67.44712,112.434,0,0
47.0844,-16180.38,-2526.122,-1549.555,-1455.976,-93.58146,108.0998,0,0
47.1176,-16184.12,-2500.889,-1534.833,-1456.185,-74.57494,88.79317,0,0
47.20056,-16190.32,-2508.108,-1564.825,-1456.333,-77.00719,130.6253,0,0
47.23376,-16185.11,-2510.249,-1602.38,-1452.004,-91.98226,138.2953,0,0
47.28354,-16203.3,-2535.088,-1557.003,-1448.688,-76.37786,174.9021,0,0
47.30013,-16217.2,-2550.664,-1591.133,-1437.295,-57.62491,187.0513,0,0
47.34992,-16213.39,-2512.59,-1618.475,-1446.329,-50.63899,170.4796,0,0
47.4163,-16180.51,-2536.559,-1596.235,-1453.258,-53.51631,180.7057,0,0
47.46608,-16140.98,-2530.436,-1595.905,-1449.694,-58.95848,162.1332,0,0
47.49928,-16155.14,-2499.075,-1573.573,-1446.968,-72.17229,141.2225,0,0
47.54906,-16148.35,-2504.967,-1580.972,-1449.321,-60.29205,72.87655,0,0
47.61544,-16160.98,-2491.734,-1512.515,-1437.831,-35.32515,-13.34973,0,0
47.68183,-16210.59,-2512.633,-1536.795,-1446.788,-33.91296,52.26838,0,0
47.71502,-16214.18,-2477.64,-1533.416,-1444.791,-51.09489,58.66658,0,0
47.7648,-16219.08,-2464.187,-1464.545,-1438.842,-48.96319,78.68523,0,0
47.79799,-16218.33,-2456.179,-1445.382,-1429.88,-43.96019,90.52054,0,0
47.84779,-16208.83,-2440.169,-1470.953,-1423.063,-61.42184,73.06884,0,0
47.88097,-16218.13,-2434.682,-1447.612,-1426.764,-60.04125,101.0827,0,0
47.94735,-16206.36,-2478.247,-1461.081,-1434.075,-99.07693,112.8775,0,0
48.01372,-16207.29,-2439.617,-1458.374,-1439.7,-117.4571,140.1954,0,0
48.06352,-16190.24,-2457.785,-1504.2,-1444.018,-124.4176,156.6241,0,0
48.0967,-16218.2,-2452.925,-1469.638,-1447.326,-102.1338,141.415,0,0
48.1299,-16209.64,-2470.322,-1506.533,-1445.419,-89.92476,180.1227,0,0
48.17968,-16206.38,-2441.57,-1502.772,-1439.526,-55.2786,138.7205,0,0
48.21287,-16216.04,-2442.91,-1498.903,-1448.32,-6.863446,180.0994,0,0
48.27925,-16193.49,-2420.755,-1513.785,-1441.749,-11.44273,182.0181,0,0
48.32904,-16177.35,-2460.421,-1496.455,-1436.724,-49.38201,178.0968,0,0
48.36223,-16191.62,-2446.51,-1527.613,-1428.464,-56.27161,160.5809,0,0
48.39542,-16167.12,-2438.135,-1488.361,-1435.469,-42.41694,110.5473,0,0
48.4784,-16207.14,-2468.357,-1516.037,-1436.42,-41.79243,142.087,0,0
48.54478,-16212.27,-2461.589,-1535.066,-1432.731,-32.4662,168.4325,0,0
48.59456,-16197.34,-2475.256,-1497.574,-1434.361,-28.13043,135.0723,0,0
48.62776,-16234.64,-2483.49,-1485.578,-1435.626,-70.5516,113.6852,0,0
48.66095,-16248.72,-2487.543,-1485.372,-1436.608,-71.12474,154.6913,0,0
48.71073,-16251.62,-2503.899,-1513.021,-1441.802,-82.03053,142.8378,0,0
48.77711,-16254.83,-2505.265,-1502.104,-1436.914,-70.3606,157.563,0,0
48.79371,-16244.99,-2517.312,-1499.347,-1437.611,-56.3921,180.9734,0,0
48.84351,-16237.36,-2526.433,-1478.469,-1438.153,-59.25518,182.7322,0,0
48.89329,-16207.08,-2552.132,-1459.272,-1438.573,-76.93864,179.269,0,0
48.92648,-16245.95,-2540.619,-1511.192,-1430.036,-87.37327,156.0349,0,0
48.95966,-16225.77,-2547.177,-1504.438,-1427.955,-90.02039,153.7263,0,0
49.04265,-16216.94,-2552.055,-1521.458,-1430.82,-79.22516,149.7222,0,0
49.07585,-16193.55,-2536.81,-1486.846,-1433.033,-66.19899,143.0459,0,0
49.19202,-16181.23,-2548.298,-1468.173,-1430.31,-52.88321,189.4532,0,0
49.2252,-16188.49,-2551.431,-1475.039,-1437.106,-52.94895,148.9981,0,0
49.25839,-16199.63,-2563.676,-1450.477,-1437.88,-60.21343,176.1794,0,0
49.29158,-16201.55,-2541.886,-1525.98,-1434.041,-63.00171,155.1055,0,0
49.34136,-16188.63,-2549.486,-1579.318,-1431.111,-62.07925,132.5864,0,0
49.37456,-16171.03,-2571.822,-1546.878,-1420.02,-41.14731,201.5168,0,0
49.49073,-16173.15,-2576.591,-1544.114,-1429.293,-49.25661,167.7628,0,0
49.52392,-16194.79,-2582.308,-1493.186,-1440.841,-50.50116,174.8371,0,0
49.64008,-16218.03,-2615.332,-1504.097,-1440.809,-63.10238,151.3985,0,0
49.67328,-16177.08,-2608.266,-1512.479,-1445.205,-64.70496,174.4467,0,0
49.70647,-16190.09,-2613.738,-1493.422,-1448.55,-50.40526,174.0439,0,0
49.73967,-16169.07,-2592.249,-1570.829,-1446.652,-58.02921,161.7814,0,0
49.78945,-16164.13,-2608.894,-1523.614,-1445.177,-66.35774,114.7131,0,0
49.82264,-16149.36,-2531.737,-1375.556,-1439.6,59.94622,121.6995,0,0
49.90562,-16182.47,-2614.483,-1459.714,-1439.757,140.3136,124.0795,0,0
49.93882,-16190.13,-2569.102,-1487.714,-1431.013,175.085,117.9371,0,0
50.00519,-16184.93,-2635.108,-1502.55,-1437.629,146.3605,166.7634,0,0
50.05499,-16198.69,-2642.235,-1508.378,-1442.696,-56.06781,109.1127,0,0
50.12136,-16205.9,-2617.566,-1506.186,-1437.702,-61.70111,106.8862,0,0
50.15455,-16165.97,-2573.053,-1439.145,-1433.88,3.32016,31.60903,0,0
50.23753,-16219.65,-2599.868,-1476.594,-1439.827,75.4767,70.34191,0,0
50.27071,-16180.94,-2619.2,-1518.622,-1431.083,96.15376,112.0715,0,0
50.32051,-16210.04,-2628.33,-1462.135,-1428.835,46.63532,9.20319,0,0
50.38689,-16200.15,-2605.263,-1355.831,-1435.998,26.8634,35.97508,0,0
50.42009,-16168.2,-2578.653,-1370.046,-1428.192,-28.23708,-11.43977,0,0
50.45327,-16210.27,-2579.309,-1324.72,-1431.098,-13.59709,27.07149,0,0
50.53624,-16204.77,-2578.687,-1279.316,-1428.906,0.1225464,77.5383,0,0
50.56943,-16178.39,-2591.489,-1405.648,-1440.539,-15.69903,42.58756,0,0
50.60263,-16201.42,-2617.864,-1330.81,-1445.005,-20.86751,-2.29797,0,0
50.6524,-16229.02,-2588.104,-1305.943,-1443.971,-26.17649,58.5806,0,0
50.68561,-16199.11,-2560.857,-1295.009,-1443.163,-62.32388,34.3897,0,0
50.71881,-16189.49,-2567.727,-1305.828,-1433.668,-64.67177,58.66376,0,0
50.80177,-16181.04,-2578.547,-1319.963,-1430.837,19.51133,159.5855,0,0
50.83496,-16252.14,-2593.471,-1334.372,-1433.116,1.357378,115.3925,0,0
50.86816,-16339.69,-2649.168,-1262.531,-1430.439,-87.35333,116.4004,0,0
50.95113,-16305.58,-2636.253,-1296.52,-1423.973,-65.92122,161.1583,0,0
51.01751,-16269.26,-2630.664,-1247.484,-1432.345,-57.42406,181.9828,0,0
51.05069,-16270.11,-2586.391,-1238.004,-1434.332,-56.36536,207.7046,0,0
51.10048,-16238.51,-2563.571,-1227.795,-1426.994,-32.48386,221.3397,0,0
51.13367,-16258.57,-2570.523,-1221.463,-1434.688,-28.29993,176.9578,0,0
51.16687,-16262.76,-2537.108,-1223.632,-1427.287,-37.82478,183.8208,0,0
51.21665,-16261.44,-2533.79,-1286.567,-1421.638,-29.29839,173.9694,0,0
51.28304,-16221.57,-2544.658,-1297.268,-1421.774,-50.73067,195.1098,0,0
51.31623,-16216.53,-2546.414,-1320.004,-1421.907,-37.44601,168.2066,0,0
51.34942,-16207.15,-2564.448,-1345.246,-1417.604,-59.37387,174.9353,0,0
51.39921,-16187.83,-2563.882,-1329.139,-1427.639,-67.22439,179.1557,0,0
51.48218,-16194.17,-2582.307,-1377.788,-1426.469,-62.89684,180.6202,0,0
51.49877,-16199.09,-2614.121,-1376.199,-1421.154,-70.03133,142.8656,0,0
51.59836,-16188.51,-2594.074,-1347.228,-1421.539,-54.91097,156.877,0,0
51.66474,-16163.86,-2545.449,-1388.204,-1421.856,-56.57912,111.0671,0,0
51.69793,-16155.09,-2540.421,-1230.059,-1422.118,-14.32581,88.24717,0,0
51.73112,-16199.47,-2579.86,-1227.799,-1417.905,-22.73838,114.6534,0,0
51.78091,-16226.83,-2620.015,-1151.023,-1419.138,-39.7349,142.4017,0,0
51.81411,-16175.74,-2600.801,-1325.326,-1424.535,-46.92189,207.3896,0,0
51.88049,-16175.48,-2590.464,-1285.983,-1415.382,-47.68913,82.77744,0,0
51.93027,-16219.67,-2576.98,-1232.699,-1417.266,-55.72635,64.21282,0,0
51.99665,-16194.76,-2602.111,-1308.445,-1418.732,-61.55801,163.1656,0,0
52.02986,-16186.8,-2596.926,-1324.38,-1406.58,-52.11894,102.3231,0,0
52.07964,-16182.97,-2596.239,-1218.039,-1410.615,-52.06102,150.529,0,0
52.14602,-16198.93,-2593.461,-1250.964,-1413.739,-64.17321,148.0697,0,0
52.17922,-16172.39,-2572.475,-1279.653,-1420.588,-75.60661,138.674,0,0
52.22901,-16200.89,-2570.83,-1204.21,-1430.27,-61.57064,108.482,0,0
52.2622,-16197.24,-2543.01,-1212.057,-1433.237,-66.28998,178.7583,0,0
52.29538,-16221.04,-2550.603,-1193.914,-1426.623,-43.54168,148.5434,0,0
52.32857,-16229.25,-2547.622,-1222.369,-1425.986,-44.68457,192.1224,0,0
52.44475,-16226.61,-2569.782,-1238.787,-1425.494,-81.28882,115.6851,0,0
52.52773,-16228.98,-2564.609,-1170.609,-1420.684,-79.59805,140.8529,0,0
52.56092,-16190.85,-2572.86,-1166.316,-1425.873,-77.11967,155.9628,0,0
52.5941,-16197.15,-2570.32,-1186.565,-1420.981,-92.32716,133.4251,0,0
52.64389,-16239.65,-2573.926,-1163.503,-1421.674,-94.45683,93.74874,0,0
52.67709,-16173.53,-2555.639,-1172.683,-1417.78,-107.3446,147.3921,0,0
52.74293,-16192.77,-2529.497,-1132.291,-1419.245,-109.0582,66.30479,0,0
52.77612,-16197.56,-2528.417,-1149.298,-1420.377,-72.58455,137.0441,0,0
52.82586,-16201.25,-2542.093,-1204.658,-1416.821,-81.18754,141.0712,1,0
52.85903,-16200.76,-2544.873,-1180.676,-1422.976,-79.69736,157.1528,1,0
52.94197,-16217.01,-2553.702,-1200.127,-1414.395,-90.70245,156.117,1,0
52.97515,-16210.59,-2516.178,-1137.569,-1407.845,-81.06348,107.915,1,0
53.04151,-16199.02,-2524.122,-1125.355,-1420.59,-54.81301,200.4104,1,0
53.07468,-16183.52,-2505.923,-1208.204,-1421.489,-58.8351,178.2987,1,0
53.12445,-16202.73,-2520.921,-1183.059,-1422.177,-71.62422,178.4437,1,0
53.15763,-16213,-2489.287,-1199.354,-1418.272,-62.01503,248.5333,1,0
53.1908,-16187.62,-2500.672,-1245.122,-1415.29,-45.24948,161.5346,1,0
53.24058,-16195.91,-2517.265,-1236.905,-1417.452,-46.58456,176.0358,1,0
53.30692,-16197.85,-2505.673,-1273.784,-1419.117,-63.98898,182.3676,1,0
53.35669,-16227.04,-2506.866,-1172.289,-1420.396,-56.8194,206.8041,1,0
53.47282,-16208.35,-2505.654,-1224.317,-1412.514,-17.55708,206.8303,1,0
53.48941,-16208.43,-2528.077,-1140.077,-1415.361,-23.32869,182.0798,1,0
53.53918,-16201.83,-2557.463,-1142.242,-1417.552,-34.75991,165.2877,1,0
53.57235,-16207.86,-2576.598,-1231.597,-1410.374,-62.12458,177.8963,1,0
53.60554,-16215.8,-2562.362,-1226.86,-1413.763,-81.95775,130.7331,1,0
53.6553,-16219.63,-2604.589,-1197.727,-1403.077,-74.92933,185.8094,1,0
53.72165,-16171.57,-2613.515,-1244.147,-1408.227,-72.27868,178.3438,1,0
53.75475,-16196.89,-2620.192,-1244.171,-1412.194,-64.67998,165.385,1,0
53.78801,-16190.82,-2609.631,-1282.898,-1410.813,-64.1134,154.3461,1,0
53.87094,-16197.27,-2600.307,-1239.282,-1396.478,-87.21201,102.1534,1,0
53.92073,-16194.48,-2605.252,-1249.048,-1398.844,-113.4212,113.0129,1,0
53.9539,-16206.75,-2587.884,-1234.307,-1405.126,-124.2284,109.2495,1,0
54.02026,-16202.85,-2581.172,-1190.87,-1396.667,-108.8221,102.324,1,0
54.05343,-16213.16,-2548.298,-1214.189,-1394.663,-90.28271,107.9429,1,0
54.1032,-16223.24,-2545.322,-1243.143,-1397.604,-80.47169,130.0708,1,0
54.13638,-16237.56,-2522.04,-1198.795,-1399.89,-92.87917,49.5696,1,0
54.16955,-16214.1,-2524.251,-1277.894,-1406.1,-96.79139,101.4346,1,0
54.21932,-16222.7,-2539.325,-1254.133,-1406.435,-138.5045,40.43229,1,0
54.28568,-16229.25,-2542.05,-1177.158,-1393.408,-125.9802,52.94856,1,0
54.31886,-16203.2,-2533.097,-1190.343,-1392.335,-114.0614,56.90824,1,0
54.4018,-16202.1,-2576.148,-1131.836,-1400.417,-93.50134,64.26633,1,0
54.43498,-16234.5,-2581.369,-1216.865,-1397.762,-204.8537,61.18279,1,0
54.46815,-16175.05,-2527.702,-1136.85,-1391.322,-238.0372,197.1646,1,0
54.51792,-16168.39,-2631.803,-1311.736,-1386.43,-287.743,291.4051,1,0
54.58427,-16208.8,-2586.153,-1301.395,-1396.025,-433.0866,44.94706,1,0
54.61745,-16191,-2530.089,-988.6335,-1398.963,-430.0555,45.32345,1,0
54.65063,-16182.93,-2586.939,-1054.356,-1401.227,-404.3045,451.8174,1,0
54.7004,-16162.41,-2596.064,-1146.038,-1407.399,-346.303,442.6845,1,0
54.73357,-16180.03,-2645.066,-1115.559,-1403.256,-333.2945,326.6873,1,0
54.81651,-16172.52,-2634.757,-1225.354,-1400.086,-374.1792,297.2894,1,0
54.84969,-16152.43,-2683.204,-1166.44,-1402.101,-412.773,27.15318,1,0
54.96581,-16071.8,-2775.425,-1017.266,-1385.924,-362.8612,-106.5005,1,0
54.98241,-16200.9,-2703.77,-1116.161,-1395.737,-323.9833,-272.7202,1,0
55.03218,-16309.7,-2685.19,-1087.911,-1407.699,-262.3724,-338.6116,1,0
55.06536,-16305.2,-2703.984,-1004.463,-1403.553,-202.0719,-251.42,1,0
55.09854,-16248.32,-2751.362,-1014.087,-1400.377,-149.571,-135.3528,1,0
55.14831,-16192.47,-2822.745,-1091.607,-1389.089,-129.7519,-161.1763,1,0
55.21466,-16154.17,-2861.398,-1073.573,-1398.203,-137.4877,-260.9934,1,0
55.26445,-16182.57,-2860.524,-1076.57,-1391.897,-162.1384,-239.7347,1,0
55.33078,-16141.21,-2891.456,-1000.384,-1395.955,-195.2413,-188.7293,1,0
55.36431,-16160.65,-2886.874,-1040.986,-1394.644,-218.9454,-168.2797,1,0
55.41407,-16126.87,-2872.868,-918.3171,-1402.517,-206.8696,-166.5951,1,0
55.48052,-16149.92,-2939.225,-931.2462,-1395.248,-208.1399,-11.47396,1,0
55.51345,-16148.83,-2926.293,-908.3591,-1394.126,-240.398,-54.15174,1,0
55.56352,-16159.17,-2871.545,-831.49,-1384.42,-256.1494,-49.8852,1,0
55.59671,-16170.47,-2956.65,-758.8632,-1381.456,-309.6341,-181.1228,1,0
55.64652,-16113.8,-2921.558,-624.2612,-1388.092,-261.4465,-324.6918,1,0
55.67972,-16149.23,-2952.961,-760.4224,-1393.196,-208.9288,-199.8788,1,0
55.74612,-16170.9,-3011.966,-688.0968,-1392.685,-166.2433,-232.7099,1,0
55.77932,-16207.44,-2980.104,-658.9969,-1392.304,-199.8704,-394.5002,1,0
55.86231,-16207.66,-2990.664,-522.3281,-1387.593,-198.2336,-332.8565,1,0
55.89552,-16184.5,-2977.209,-506.3013,-1392.87,-188.7072,-310.5276,1,0
55.92871,-16152.36,-2957.613,-482.9237,-1396.919,-196.1473,-323.0968,1,0
56.01171,-16111.2,-2923.414,-355.3183,-1400.018,-196.3403,-443.2564,1,0
56.04493,-16058.8,-2954.573,-268.9001,-1397.95,-30.62697,-377.4522,1,0
56.09473,-16123.09,-3024.64,-425.7416,-1387.501,84.20245,-612.8552,1,0
56.16112,-16140.3,-2929.376,-306.4376,-1392.815,112.4625,-1052.331,1,0
56.19431,-16135.82,-2945.949,-441.1965,-1388.029,-2.862339,-739.2351,1,0
56.27731,-16097,-3001.6,-238.3551,-1388.815,-37.55073,-746.9734,1,0
56.31051,-16121.73,-3018.37,-37.7843,-1393.863,-84.0611,-718.2094,1,0
56.3769,-16125.24,-3122.778,100.8209,-1393.3,-91.5845,-488.5351,1,0
56.45989,-16077.05,-3110.166,75.42384,-1392.872,-92.4929,-432.708,1,0
56.49308,-16060.28,-3127.659,147.2868,-1388.119,-52.04603,-591.5758,1,0
56.52629,-16086.42,-3154.9,279.1465,-1380.064,-48.98373,-540.0346,1,0
56.57608,-16083.33,-3198.433,334.8749,-1373.93,-37.15361,-475.1577,1,0
56.60928,-16086.63,-3217.812,403.1902,-1373.711,-41.0596,-504.3845,1,0
56.64249,-16105.91,-3313.958,464.4782,-1378.02,-96.31998,-361.8965,1,0
56.67569,-16052.06,-3274.829,543.6206,-1385.782,-148.1091,-306.5233,1,0
56.79187,-15984.44,-3282.921,619.7475,-1391.737,-187.9746,-241.5465,1,0
56.84167,-16011.66,-3302.82,619.2839,-1391.862,-180.6768,-261.311,1,0
56.87487,-15996.21,-3356.123,638.9564,-1387.524,-168.3109,-166.1576,1,0
56.90807,-16032.31,-3306.41,601.0035,-1393.072,-162.3484,-178.4769,1,0
56.99107,-16004.74,-3359.661,759.5258,-1388.451,-163.2469,-206.8428,1,0
57.02427,-16007.13,-3349.861,815.6351,-1393.78,-162.2002,-108.3775,1,0
57.05747,-16010.29,-3336.158,1044.784,-1393.422,-151.916,124.0955,1,0
57.09067,-15976.35,-3301.811,934.0789,-1393.14,-168.6517,385.5386,1,0
57.14047,-15997.16,-3298.3,830.5355,-1397.351,-173.9127,140.7308,1,0
57.19026,-16008.87,-3320.65,861.3478,-1400.559,-171.4868,40.15212,1,0
57.20687,-16018,-3384.93,756.884,-1398.563,-172.3252,43.92952,1,0
57.32306,-16077.19,-3339.389,821.7066,-1401.449,-340.4511,10.21082,1,0
57.35626,-15943.04,-3353.915,950.7158,-1390.344,-289.2529,429.237,1,0
57.38945,-16026.74,-3312.506,678.8799,-1381.846,-269.6718,468.6244,1,0
57.43926,-16007.83,-3304.832,705.7222,-1375.364,-232.5444,186.5703,1,0
57.47245,-16021.18,-3337.427,749.6607,-1374.872,-242.1827,109.4647,1,0
57.53885,-16072.48,-3367.56,650.4398,-1378.965,-318.0796,48.5425,1,0
57.58865,-16034.17,-3314.888,754.2967,-1377.694,-322.4039,36.18794,1,0
57.62185,-16063.62,-3350.729,781.9128,-1381.18,-214.051,112.3049,1,0
57.65504,-16039.62,-3394.453,669.1613,-1379.437,-123.0004,292.5565,1,0
57.73804,-16066.71,-3297.897,554.4936,-1382.554,-88.62163,129.789,1,0
57.85424,-16042,-3295.804,628.1015,-1389.385,-118.2032,308.0073,1,0
57.87085,-16050.82,-3316.202,523.3434,-1385.749,-133.8073,333.9821,1,0
57.92064,-16055.36,-3287.315,593.5806,-1378.538,-168.5741,267.1862,1,0
57.97043,-16078.78,-3290.56,629.2694,-1381.901,-230.1109,276.0682,1,0
57.98703,-16012.47,-3278.528,708.2321,-1388.919,-254.6692,421.2876,1,0
58.03684,-16033.81,-3281.419,610.7905,-1389.857,-291.2968,512.1727,1,0
58.08664,-16013.64,-3262.501,544.7123,-1390.568,-275.6055,398.1654,1,0
58.11984,-16065.86,-3311.127,572.6161,-1382.242,-202.7344,318.9776,1,0
58.18624,-16042.67,-3310.547,571.6136,-1384.741,-154.9494,272.774,1,0
58.21944,-16047.1,-3377.54,672.566,-1386.66,-132.3033,380.1939,1,0
58.25264,-16087.05,-3414.146,566.65,-1374.836,-201.7926,563.1893,1,0
58.30244,-16042.23,-3364.269,457.7039,-1379.105,-202.35,474.0801,1,0
58.36884,-16000.18,-3364.629,489.6119,-1382.391,-149.573,303.18,1,0
58.40205,-15991.37,-3370.234,487.4899,-1376.052,-180.4362,194.7289,1,0
58.45184,-15968.14,-3316.708,527.9984,-1375.652,-164.206,43.52905,1,0
58.48505,-16019.23,-3352.089,533.4744,-1379.8,-149.8966,75.97969,1,0
58.51825,-15991.94,-3374.596,512.1166,-1382.987,-154.8135,100.2322,1,0
58.56804,-15976.69,-3367.26,551.1369,-1376.568,-125.9689,63.02337,1,0
58.63443,-15982.89,-3416.864,480.096,-1380.534,-57.49035,4.866438,1,0
58.66763,-15983.33,-3330.493,513.2835,-1383.578,-1.4698,-90.25413,1,0
58.70082,-16038.06,-3329.663,687.1249,-1385.909,19.41526,-66.68795,1,0
58.81703,-16017.91,-3321.221,621.5093,-1387.689,-2.692858,290.8315,1,0
58.85022,-16012.48,-3291.464,476.8559,-1375.748,-15.54735,120.5166,1,0
58.90002,-16026.08,-3294.202,581.1188,-1375.487,-39.54473,22.26991,1,0
58.93322,-16043.15,-3285.255,591.016,-1366.444,-70.33835,73.04652,1,0
58.98301,-16029.6,-3265.164,588.4639,-1368.422,-110.6809,150.8313,1,0
58.99961,-15984.88,-3260.957,593.0115,-1378.831,-82.90025,173.2194,1,0
59.04941,-16002.81,-3311.013,590.8067,-1386.807,-68.10513,196.8989,1,0
59.11581,-16002.19,-3307.223,582.3373,-1384.039,-84.8844,216.532,1,0
59.16562,-16022.82,-3370.778,571.3143,-1399.638,-139.0863,267.648,1,0
59.23201,-16019.78,-3347.272,553.937,-1389.384,-107.151,334.1744,1,0
59.28181,-16050.7,-3332.5,491.8586,-1394.81,-86.88554,251.1739,1,0
59.31501,-16026.68,-3346.613,569.6273,-1394.505,-50.67636,231.9832,1,0
59.34821,-16024.89,-3287.54,563.7424,-1385.384,-23.94293,281.0962,1,0
59.38141,-16041.25,-3325.452,550.3204,-1391.691,-21.9675,266.636,1,0
59.43114,-16036.02,-3300.163,419.2737,-1392.071,-33.40285,223.7654,1,0
59.46441,-16048.6,-3318.492,459.9167,-1392.346,-38.72787,246.7721,1,0
59.4976,-16021.63,-3333.617,372.6825,-1383.676,-59.84656,265.3359,1,0
59.56401,-16016.5,-3329.635,432.5553,-1381.473,-46.47219,99.05945,1,0
59.6138,-16001.52,-3360.888,437.6255,-1379.797,-9.482962,215.9471,1,0
59.647,-16006.72,-3342.609,430.6202,-1369.663,-3.236804,84.6383,1,0
59.6802,-16048.42,-3313.041,495.2447,-1375.234,-35.76667,110.6231,1,0
59.71339,-16007.18,-3289.304,501.5551,-1375.089,-59.95635,399.8788,1,0
59.76321,-16001.12,-3305.537,406.6999,-1374.999,-86.83566,337.5058,1,0
59.7964,-15995.43,-3321.314,440.6589,-1374.948,-94.38258,258.6497,1,0
59.82959,-16017.72,-3291.284,470.1304,-1379.36,-86.83288,230.2476,1,0
59.91259,-16000.46,-3358.08,525.9984,-1382.744,-59.98899,291.7898,1,0
59.9458,-16017.21,-3361.486,545.4437,-1372.041,-65.241,281.3685,1,0
59.99559,-16025.61,-3314.135,487.1065,-1368.3,-80.09808,241.0843,1,0
60.01219,-16030.92,-3298.94,459.0887,-1369.899,-71.25395,114.618,1,0
60.06199,-16009.48,-3278.49,500.8788,-1371.148,-51.4838,53.74179,1,0
60.09519,-16046.27,-3291.728,581.6143,-1376.558,-49.15004,78.94612,1,0
60.12839,-16036.71,-3314.106,448.2615,-1380.708,-49.36812,180.506,1,0
60.21138,-16027.14,-3274.743,517.9937,-1375.02,-26.05638,27.59572,1,0
60.24458,-16072.97,-3281.255,585.7458,-1370.676,-46.81699,181.4827,1,0
60.27779,-16078.04,-3270.805,476.79,-1371.802,-64.9873,369.1059,1,0
60.31098,-16061.86,-3210.83,490.9184,-1368.249,-53.70963,169.1806,1,0
60.36078,-16043.85,-3242.686,525.0316,-1374.415,-39.8504,171.8003,1,0
60.41059,-16068.8,-3262.788,494.6022,-1379.145,-56.44858,123.1697,1,0
60.42719,-16081.17,-3263.866,461.3559,-1369.47,-55.05885,135.3894,1,0
60.5102,-16057.29,-3250.37,488.0674,-1366.512,-49.03712,65.10468,1,0
60.54339,-16067.76,-3230.172,463.1323,-1359.842,-83.51674,91.88483,1,0
60.5766,-16021.42,-3205.994,505.0586,-1363.637,-92.70279,120.9005,1,0
60.65959,-16020.32,-3198.757,533.8229,-1357.71,-66.16214,148.2244,1,0
60.69279,-16063.84,-3224.439,467.1406,-1353.212,-70.49208,186.367,1,0
60.72599,-16074.94,-3273.038,519.1887,-1354.25,-93.18696,172.6016,1,0
60.77578,-16031.28,-3211.665,558.9941,-1355.088,-104.4107,235.4453,1,0
60.80899,-16041.08,-3224.648,516.2182,-1360.202,-92.14944,159.8869,1,0
60.8754,-16043.04,-3232.488,503.3752,-1359.712,-126.4692,147.2062,1,0
60.9252,-16009.09,-3227.503,527.8854,-1350.499,-96.12076,168.5747,1,0
60.9584,-16023.04,-3258.125,505.6077,-1347.922,-78.92641,155.5849,1,0
60.9916,-15982.8,-3249.465,582.713,-1359.292,-79.32539,104.4089,1,0
61.0414,-15962.1,-3237.333,529.6804,-1363.586,-86.82501,108.0296,1,0
61.07459,-15988.51,-3274.636,559.926,-1362.452,-78.69582,84.62981,1,0
61.10779,-16008.83,-3284.339,576.3216,-1357.162,-81.05342,113.7036,1,0
61.19079,-15994.53,-3275.103,522.2584,-1357.566,-87.28103,161.2745,1,0
61.22399,-16026.86,-3256.928,516.3002,-1366.758,-97.5654,94.10721,1,0
61.25719,-15992.9,-3248.571,575.9933,-1364.931,-77.14478,133.9425,1,0
61.29038,-16037.87,-3224.487,534.0442,-1363.534,-82.285,135.1325,1,0
61.34018,-16053.44,-3232.727,535.1262,-1362.469,-89.25964,126.3901,1,0
61.37339,-16074.15,-3241.321,511.5503,-1361.661,-100.3923,117.8157,1,0
61.40659,-16038.94,-3215.82,497.9547,-1356.62,-64.55534,184.164,1,0
61.48959,-16099.47,-3213.015,406.7309,-1361.643,-69.28046,68.15551,1,0
61.52278,-16094.69,-3244.204,490.028,-1361.065,-96.46488,123.814,1,0
61.55599,-16049.89,-3201.642,510.6605,-1360.631,-129.4253,146.265,1,0
61.60578,-16069.85,-3247.831,471.0731,-1355.876,-109.1264,190.0378,1,0
61.63898,-16036.3,-3228.922,479.6326,-1365.548,-84.65939,148.6686,1,0
61.72197,-16041.64,-3246.621,529.4636,-1368.519,-57.61634,133.605,1,0
61.73857,-16045.73,-3266.827,487.8072,-1366.351,-60.51449,150.3514,1,0
61.78838,-16030.01,-3232.406,527.9702,-1364.685,-51.43215,162.3332,1,0
61.85476,-16035.72,-3232.68,487.7768,-1372.271,-62.55185,175.6239,1,0
61.88797,-16025.69,-3230.714,478.1009,-1369.198,-67.23056,156.9302,1,0
61.93777,-16021.37,-3227.035,440.8531,-1375.696,-71.11827,161.153,1,0
61.97096,-16011.46,-3206.541,443.5073,-1362.922,-66.35792,142.2021,1,0
62.02076,-16031.62,-3221.962,496.64,-1366.44,-76.86527,98.35297,1,0
62.05395,-16062.58,-3241.577,487.4793,-1364.7,-79.09604,180.1112,1,0
62.12035,-16026.4,-3223.365,494.8949,-1358.938,-77.19969,138.5,1,0
62.20335,-16049.68,-3228.299,537.14,-1363.404,-85.99554,130.757,1,0
62.23655,-16019.84,-3215.491,509.5737,-1362.397,-76.37008,152.2873,1,0
62.26974,-15980.42,-3210.176,534.9733,-1361.631,-42.9702,134.9724,1,0
62.30295,-16019.04,-3199.529,510.0291,-1361.052,-31.60344,105.4036,1,0
62.35274,-16030.93,-3213.624,528.5786,-1360.617,-22.45129,131.6042,1,0
62.38594,-16030.06,-3264.35,510.5958,-1355.862,-33.28955,163.605,1,0
62.43574,-16034.95,-3232.221,531.1548,-1352.241,-47.49296,165.0735,1,0
62.45182,-16054.19,-3229.785,516.9245,-1349.496,-64.78829,189.9673,1,0
62.50162,-16067.76,-3224.611,545.885,-1342.995,-58.65074,158.5185,1,0
62.568,-16070.31,-3237.292,504.8232,-1342.494,-59.23365,155.7393,1,0
62.651,-16053.35,-3220.409,617.4078,-1346.587,-41.69595,80.20289,1,0
62.6842,-16066.92,-3211.949,573.743,-1345.321,-49.09724,128.6014,1,0
62.7174,-16051.76,-3208.847,566.7572,-1357.68,-36.80018,153.2371,1,0
62.7506,-16061.17,-3215.392,541.3528,-1353.851,-39.63499,146.6002,1,0
62.8004,-16069.43,-3201.609,601.6148,-1346.5,-40.47525,90.55543,1,0
62.8336,-16045.78,-3218.821,616.55,-1345.33,-32.85948,123.1024,1,0
62.9166,-16033.21,-3214.299,615.5865,-1344.464,-28.75455,164.4086,1,0
62.94979,-16044.65,-3226.38,656.746,-1343.831,-38.42206,207.336,1,0
62.983,-16048.98,-3190.213,559.4702,-1347.807,-56.11559,188.5377,1,0
63.03279,-16032.34,-3223.54,556.9548,-1342.007,-61.9083,136.6542,1,0
63.06601,-16025.16,-3198.103,574.9385,-1337.597,-53.31279,201.3656,1,0
63.0992,-16025.24,-3187.554,547.6479,-1338.692,-50.89248,131.698,1,0
63.1324,-16048.61,-3201.719,553.3358,-1335.135,-80.34709,171.1776,1,0
63.18221,-16008.88,-3140.606,611.9572,-1323.59,-74.86994,181.1381,1,0
63.24862,-16012.87,-3177.089,596.8671,-1336.973,-81.1582,167.6444,1,0
63.28181,-15997.16,-3184.068,563.0463,-1342.82,-96.16563,143.4286,1,0
63.31502,-16030.65,-3160.68,609.1335,-1342.882,-92.89108,96.38425,1,0
63.36481,-16027.5,-3223.765,553.4503,-1347.375,-77.56937,167.1228,1,0
63.39803,-16026.22,-3197.813,575.0743,-1355.25,-81.58976,124.0354,1,0
63.43122,-16013.07,-3225.607,596.0188,-1352.401,-65.79373,190.8092,1,0
63.48102,-16025.21,-3209.185,542.1728,-1350.212,-72.52959,132.1658,1,0
63.58062,-16075.51,-3220.986,572.9921,-1352.964,-79.6081,81.76954,1,0
63.61383,-16069.61,-3210.057,619.8203,-1350.632,-67.54654,118.3981,1,0
63.69682,-16049.5,-3205.014,615.6522,-1348.843,-68.55518,118.5392,1,0
63.73003,-16058.45,-3227.755,611.2275,-1351.906,-66.82963,95.72307,1,0
63.77983,-16079.65,-3213,572.2819,-1349.814,-66.33833,101.9072,1,0
63.81302,-16066.99,-3200.592,554.6379,-1348.213,-83.41039,125.5676,1,0
63.84618,-16045.04,-3187.793,633.1088,-1351.42,-67.63918,122.1131,1,0
63.87943,-16088.06,-3203.529,597.7673,-1340.578,-54.73182,123.9369,1,0
63.96243,-16056.63,-3194.544,623.8184,-1341.161,-49.86397,120.9333,1,0
63.99511,-16044.73,-3209.856,599.3325,-1337.195,-61.13208,147.7499,1,0
64.04491,-16023.43,-3198.313,597.1448,-1347.479,-74.20226,162.992,1,0
64.07805,-16054.81,-3210.548,566.6189,-1346.492,-78.09648,138.3185,1,0
64.11124,-16059.98,-3190,606.4177,-1350.171,-87.14246,118.3167,1,0
64.16101,-16028.46,-3198.681,665.6258,-1352.983,-65.21736,145.6979,0,0
64.19419,-16038.7,-3215.319,595.5439,-1355.125,-63.11399,172.181,0,0
64.21078,-16046.56,-3249.086,610.5389,-1356.748,-66.77635,202.6229,0,0
64.29374,-16054.79,-3221.668,584.2935,-1353.541,-85.09139,133.8333,0,0
64.32693,-16041.13,-3246.065,631.7777,-1346.644,-78.30171,148.7585,0,0
64.37671,-16066.13,-3219.241,617.0682,-1350.232,-67.81721,180.6652,0,0
64.40987,-16037.58,-3238.566,682.176,-1339.683,-24.3421,233.5313,0,0
64.44307,-16070.03,-3237.792,653.1558,-1344.922,-22.17769,219.2401,0,0
64.47626,-16048.29,-3229.388,705.0204,-1344.512,-32.81127,168.2508,0,0
64.52602,-16089.24,-3224.029,644.7773,-1339.776,-84.23166,239.1232,0,0
64.59238,-16016.37,-3209.936,697.1482,-1340.601,-88.37883,257.1845,0,0
64.62557,-16075.86,-3201.376,558.6766,-1336.819,-136.0842,235.0541,0,0
64.67534,-16094.76,-3183.779,645.5335,-1333.949,-145.0244,170.8595,0,0
64.70853,-16112.44,-3194.752,665.4242,-1349.506,-144.7651,209.7707,0,0
64.74171,-16067.13,-3146.701,619.5953,-1348.117,-128.6098,246.1138,0,0
64.79148,-16113.27,-3182.073,559.011,-1342.617,-117.225,203.9709,0,0
64.82467,-16100.83,-3164.908,533.8011,-1347.278,-175.4413,145.6001,0,0
64.89103,-16129.98,-3217.227,619.9231,-1337.551,-220.9031,254.4106,0,0
64.94081,-16106.71,-3210.73,481.9988,-1347.848,-248.4715,304.8572,0,0
64.97399,-16056.68,-3217.929,465.3133,-1346.865,-237.0887,206.0949,0,0
65.04035,-16072.67,-3222.306,509.3565,-1346.11,-206.1758,153.413,0,0
65.12331,-16038.38,-3209.003,469.0558,-1349.963,-150.7065,236.122,0,0
65.15649,-16039.88,-3240.91,435.1577,-1357.335,-109.5361,137.3151,0,0
65.20627,-16046.63,-3234.244,493.7432,-1358.522,-87.72537,154.2822,0,0
65.23946,-16020.82,-3222.433,568.7021,-1346.11,-71.92639,177.5951,0,0
65.30582,-16033.29,-3234.411,510.887,-1349.902,-74.61178,220.1091,0,0
65.339,-16050.66,-3223.588,514.3919,-1343.938,-77.03692,200.2309,0,0
65.38877,-16058.43,-3218.598,540.4617,-1343.81,-87.83739,306.003,0,0
65.42196,-16011.22,-3190.393,469.6366,-1352.584,-89.78832,285.6205,0,0
65.45515,-16048.29,-3210.949,459.937,-1350.426,-76.64718,240.9908,0,0
65.50492,-16049,-3187.918,462.7098,-1344.336,-78.56624,175.1437,0,0
65.53809,-16062.86,-3266.721,458.3963,-1339.68,-75.1142,182.3909,0,0
65.60446,-16052.4,-3207.284,514.0159,-1336.134,-101.8962,193.7958,0,0
65.65423,-16098.68,-3263.708,497.9547,-1333.444,-96.3705,230.511,0,0
65.6873,-16094.13,-3240.325,427.0426,-1331.415,-82.18324,218.6652,0,0
65.7206,-16092.78,-3240.088,464.9558,-1334.327,-78.01385,130.3418,0,0
65.75378,-16079.49,-3253.148,416.597,-1336.581,-75.15252,147.6275,0,0
65.80355,-16061.51,-3260.851,411.9591,-1347.188,-89.35972,134.9466,0,0
65.83674,-16054.39,-3285.487,448.549,-1342.008,-93.05836,243.3587,0,0
65.90311,-16081.09,-3263.213,464.5386,-1338.047,-75.13009,133.4865,0,0
65.95287,-16064.93,-3287.061,540.0386,-1330.596,-41.79195,169.9748,0,0
65.96827,-16021.53,-3290.781,452.6524,-1324.922,-28.85714,187.4381,0,0
66.01961,-16024.96,-3289.058,464.5334,-1325.052,-35.44593,143.4851,0,0
66.10265,-16043.18,-3285.395,448.2532,-1325.191,-63.88346,139.2958,0,0
66.13587,-16043.88,-3239.274,483.5582,-1329.766,-59.95538,152.8175,0,0
66.18568,-16059.95,-3260.461,458.568,-1333.294,-65.5934,158.8139,0,0
66.21889,-16036.8,-3237.864,415.1619,-1336.009,-95.15646,238.2378,0,0
66.28529,-16030.21,-3219.463,511.7375,-1329.234,-87.29896,204.7527,0,0
66.3185,-16024.11,-3213.18,514.7432,-1328.5,-109.5227,232.793,0,0
66.36831,-16053.86,-3223.944,491.5179,-1332.393,-115.954,214.8233,0,0
66.40152,-16054.48,-3222.251,448.2656,-1339.818,-112.2198,263.5911,0,0
66.43474,-16041.66,-3213.237,517.1785,-1345.498,-89.91394,185.5445,0,0
66.51775,-16050.7,-3217.47,471.293,-1354.26,-71.72284,231.322,0,0
66.55095,-16060.95,-3246.235,512.6522,-1356.5,-72.78902,238.5877,0,0
66.61736,-16043.3,-3208.411,509.9326,-1344.879,-86.10312,198.0742,0,0
66.65057,-16035.35,-3218.287,521.1066,-1340.401,-55.03324,206.1023,0,0
66.70039,-16079.15,-3248.042,488.612,-1336.972,-47.65837,236.6011,0,0
66.7336,-16071.64,-3215.399,493.6607,-1343.216,-39.33036,226.0744,0,0
66.78341,-16092.43,-3195.988,475.3763,-1339.128,-40.53459,154.5311,0,0
66.81661,-16097.18,-3191.183,476.9342,-1340.431,-29.36545,224.2139,0,0
66.84982,-16101.82,-3203.107,423.8871,-1336.998,-51.94776,211.5957,0,0
66.88303,-16076.47,-3207.866,558.4688,-1329.945,-78.1572,204.1232,0,0
66.96604,-16098.02,-3214.88,437.5778,-1333.431,-93.78487,308.898,0,0
66.99925,-16059.04,-3277.883,387.2422,-1327.252,-114.8442,465.5836,0,0
67.03246,-16058,-3204.141,296.8792,-1326.981,-150.5392,502.9658,0,0
67.08228,-16048.36,-3149.95,364.3953,-1322.369,-148.3406,643.6403,0,0
67.14867,-16052.1,-3147.413,276.7699,-1323.305,-134.867,760.6362,0,0
67.18189,-16063.84,-3183.315,137.0152,-1328.486,-121.6632,694.7682,0,0
67.2151,-15993.07,-3175.438,205.8005,-1328.04,-76.02385,833.3555,0,0
67.29812,-16054.25,-3129.624,139.3818,-1327.717,-135.5517,1168.099,0,0
67.33133,-16013.59,-3123.548,-31.54295,-1331.919,-117.0461,1303.354,0,0
67.38061,-16013.58,-3160.09,-155.8298,-1330.713,-92.84632,1251.307,0,0
67.4138,-16045.8,-3182.636,-290.6972,-1320.936,-90.93465,1210.905,0,0
67.48016,-16049.44,-3153.419,-421.2317,-1313.482,-91.69193,1090.722,0,0
67.51334,-16034.51,-3152.209,-508.3429,-1321.117,-78.42749,997.3497,0,0
67.56312,-16027.55,-3177.98,-544.3713,-1322.559,-31.47107,943.3585,0,0
67.59631,-16008.99,-3223.235,-699.7207,-1319.254,-20.0327,724.7344,0,0
67.62949,-16023.67,-3204.645,-577.2683,-1325.615,-81.22953,588.6097,0,0
67.67928,-16043.84,-3280.124,-533.866,-1326.067,-73.81411,835.0424,0,0
67.71246,-16060.39,-3305.593,-742.8406,-1330.855,-85.61012,874.4664,0,0
67.77883,-16070.82,-3333.711,-803.4427,-1325.657,-137.8433,887.1505,0,0
67.82861,-16117.52,-3421.409,-864.5037,-1326.119,-141.153,1034.456,0,0
67.8618,-16045.65,-3359.562,-1000.103,-1326.482,-46.3493,1007.297,0,0
67.89498,-15986.21,-3350.661,-1058.521,-1322.337,6.750691,978.7722,0,0
67.97794,-16023.94,-3366.832,-1212.917,-1323.612,21.70503,958.1768,0,0
68.01114,-15996.39,-3422.117,-1313.164,-1324.601,19.33731,1014.64,0,0
68.0775,-15870.17,-3489.511,-1440.532,-1320.937,71.02477,814.5584,0,0
68.11069,-15926.82,-3553.856,-1519.823,-1331.444,118.572,699.1082,0,0
68.16047,-16036.92,-3520.472,-1624.301,-1335.051,235.97,610.5252,0,0
68.19366,-16076.88,-3515.401,-1612.819,-1324.502,309.1109,702.7976,0,0
68.24344,-16020.97,-3588.549,-1766.421,-1334.161,287.0226,718.123,0,0
68.27663,-15958.23,-3577.43,-1775.906,-1332.681,208.733,550.6933,0,0
68.343,-15973.52,-3605.984,-1820.301,-1327.107,152.9971,426.2362,0,0
68.39278,-15972.05,-3617.247,-1724.197,-1327.275,84.22612,334.6782,0,0
68.42596,-16000.97,-3604.2,-1703.679,-1327.408,48.8607,500.0214,0,0
68.49232,-15950.04,-3654.581,-1798.822,-1327.513,47.19807,539.2599,0,0
68.54211,-15932.26,-3653.739,-1789.66,-1318.734,82.15009,654.0874,0,0
68.57529,-15916.63,-3615.929,-1842.579,-1325.329,97.69916,651.7464,0,0
68.64167,-15871.65,-3743.802,-1903.143,-1321.523,72.0517,566.6181,0,0
68.69144,-15877.41,-3733.495,-2010.524,-1318.625,99.12358,531.5739,0,0
68.72463,-15921.99,-3722.694,-2035.082,-1320.858,128.0072,449.0944,0,0
68.75783,-15874.31,-3739.273,-2089.345,-1313.721,53.53025,475.5958,0,0
68.84078,-15875.74,-3775.705,-2088.801,-1312.718,-21.8002,397.4039,0,0
68.92375,-15911.43,-3797.377,-2149.443,-1316.413,-77.94034,411.7536,0,0
68.94034,-15933.37,-3762.313,-2174.929,-1314.832,-110.6763,345.4048,0,0
69.02332,-15900.41,-3820.189,-2099.33,-1313.645,-112.413,375.2583,0,0
69.07308,-15884.2,-3818.403,-2105.041,-1312.762,-103.4453,494.7314,0,0
69.08968,-15918.51,-3828.582,-2102.196,-1316.542,-70.81147,513.8499,0,0
69.13947,-15898.36,-3852.364,-2187.064,-1315.022,-55.04608,652.7065,0,0
69.20583,-15849.83,-3851.092,-2259.217,-1313.875,-4.055486,709.5366,0,0
69.25561,-15828.44,-3880.526,-2339.283,-1321.88,25.86506,685.9872,0,0
69.28871,-15842.26,-3881.369,-2354.415,-1319.147,23.79413,778.7681,0,0
69.32199,-15816.53,-3855.922,-2355.346,-1330.354,83.92126,824.7097,0,0
69.35516,-15729.53,-3944.485,-2548.23,-1330.052,114.2635,739.7083,0,0
69.43812,-15733.19,-3987.226,-2576.433,-1320.939,37.54484,555.507,0,0
69.50451,-15749.73,-3967.124,-2519.578,-1322.828,71.80431,675.2267,0,0
69.55428,-15720.67,-4021.96,-2614.971,-1315.412,96.52041,800.8184,0,0
69.58746,-15678.91,-4046.566,-2719.355,-1318.612,109.4466,779.1234,0,0
69.62066,-15620.85,-4029.176,-2734.101,-1325.502,147.9437,611.77,0,0
69.67044,-15591.4,-4031.782,-2767.806,-1326.338,184.615,507.2295,0,0
69.70362,-15629.33,-4084.074,-2847.076,-1318.105,208.7388,447.4292,0,0
69.76998,-15653.35,-4121.147,-2892.471,-1316.243,152.872,321.7548,0,0
69.80183,-15671.07,-4108.856,-2883.127,-1314.831,81.33121,264.1738,0,0
69.85294,-15676.14,-4103.154,-2889.612,-1318.198,46.43863,315.3272,0,0
69.88614,-15674.83,-4103.657,-2875.069,-1316.352,33.32347,319.4046,0,0
69.91933,-15638.69,-4111.164,-2877.795,-1319.382,67.6542,351.0899,0,0
69.96911,-15634.67,-4172.794,-2927.063,-1321.705,120.2273,292.7488,0,0
70.00229,-15655.24,-4227.011,-2947.685,-1327.914,71.71004,212.1142,0,0
70.06866,-15649.14,-4204.563,-2977.43,-1332.651,57.24636,178.8209,0,0
70.10184,-15654.74,-4197.736,-2979.837,-1327.388,63.07707,100.3899,0,0
70.15163,-15708.05,-4226.189,-2908.214,-1318.915,18.79511,38.77561,0,0
70.18477,-15680.31,-4226.236,-2969.594,-1316.866,27.08754,29.45922,0,0
70.218,-15672.56,-4243.343,-2965.457,-1324.172,14.95819,48.24314,0,0
70.25119,-15670.15,-4221.441,-2930.066,-1325.329,5.218328,34.71494,0,0
70.33453,-15636.37,-4241.769,-2930.719,-1326.207,-13.47552,49.60259,0,0
70.3677,-15682.77,-4234.591,-2904.744,-1318.007,-39.26458,82.56371,0,0
70.41748,-15676.34,-4187.57,-2883.977,-1325.032,-58.248,70.80455,0,0
70.50042,-15661.6,-4198.808,-2883.912,-1321.542,-24.62826,90.98537,0,0
70.56679,-15663.77,-4210.337,-2906.391,-1332.164,-15.63051,86.51746,0,0
70.59997,-15675.56,-4196.604,-2870.787,-1318.118,-43.51724,90.84991,0,0
70.63316,-15679.17,-4158.044,-2857.304,-1320.668,-74.66105,139.2681,0,0
70.66634,-15661,-4183.672,-2920.647,-1322.625,-148.9467,175.8791,0,0
70.7161,-15658.3,-4109.953,-2745.805,-1319.691,-192.9579,222.7284,0,0
70.7493,-15670.78,-4119.881,-2794.495,-1321.883,-178.5335,186.4513,0,0
70.81565,-15662.71,-4146.202,-2731.748,-1327.993,-149.3373,173.0121,0,0
70.89861,-15669.94,-4146.246,-2752.229,-1332.658,-75.41243,194.8049,0,0
70.93179,-15656.74,-4169.384,-2818.671,-1327.343,-50.24164,164.5785,0,0
70.96499,-15621.28,-4140.367,-2849.261,-1323.264,-52.22199,124.4946,0,0
71.01476,-15646.38,-4105.837,-2774.798,-1315.709,-107.9484,34.29452,0,0
71.04794,-15629.18,-4072.714,-2775.188,-1314.374,-130.1996,107.2612,0,0
71.1143,-15644.96,-4097.248,-2855.06,-1313.372,-103.7903,71.2153,0,0
71.16408,-15684.86,-4094.968,-2832.763,-1321.489,-91.15731,87.75044,0,0
71.19726,-15653.39,-4117.583,-2839.768,-1309.98,-71.664,104.3284,0,0
71.23038,-15653.75,-4142.592,-2847.052,-1314.49,-59.98789,89.58675,0,0
71.28023,-15662.96,-4150.543,-2791.403,-1313.528,-75.93143,144.4938,0,0
71.31339,-15662.32,-4137.667,-2819.546,-1308.378,-69.78323,147.343,0,0
71.37977,-15687.36,-4118.852,-2807.655,-1308.894,-51.16962,104.5016,0,0
71.42955,-15716.5,-4127.666,-2791.736,-1304.884,-43.55318,130.9039,0,0
71.46272,-15713.25,-4124.381,-2820.417,-1301.848,-47.69933,160.1228,0,0
71.49591,-15655.31,-4105.199,-2841.09,-1303.993,-27.88454,151.2632,0,0
71.52909,-15689.67,-4135.928,-2783.584,-1305.668,-43.22181,198.2888,0,0
71.57887,-15632.88,-4150.52,-2813.704,-1302.545,-75.18873,157.8219,0,0
71.64523,-15693.66,-4166.018,-2795.639,-1309.049,-134.768,126.0684,0,0
71.67841,-15671.49,-4163.347,-2872.56,-1309.613,-150.8227,139.5548,0,0
71.71159,-15685.56,-4140.13,-2804.901,-1310.057,-150.1413,102.0636,0,0
71.76135,-15665.31,-4128.939,-2849.385,-1301.546,-130.567,107.0467,0,0
71.82771,-15665.35,-4155.79,-2859.991,-1299.491,-120.6799,139.5452,0,0
71.8775,-15675.39,-4121.973,-2824.702,-1302.382,-114.9193,97.20105,0,0
71.99364,-15706.36,-4111.582,-2866.256,-1295.759,-100.4303,134.7377,0,0
72.02682,-15705.64,-4115.829,-2831.402,-1290.726,-108.1014,146.3775,0,0
72.06001,-15682.87,-4115.764,-2835.625,-1304.647,-96.99924,138.7107,0,0
72.09319,-15676.52,-4115.721,-2838.745,-1306.457,-85.12393,126.5241,0,0
72.14297,-15682.75,-4093.538,-2874.255,-1307.852,-66.59478,178.4789,0,0
72.17614,-15679.77,-4124.247,-2860.264,-1308.924,-56.86351,156.4521,0,0
72.20933,-15668.63,-4110.077,-2830.571,-1314.178,-33.673,173.6582,0,0
72.27569,-15670.1,-4104.783,-2866.479,-1309.327,-55.8965,160.2112,0,0
72.35864,-15703.38,-4104.082,-2840.649,-1310.046,-64.36851,161.8232,0,0
72.39184,-15682.29,-4098.035,-2816.36,-1310.596,-65.61205,165.2688,0,0
72.4416,-15645.09,-4113.386,-2799.958,-1315.446,-64.64021,174.5417,0,0
72.47479,-15667.65,-4120.712,-2845.026,-1314.715,-71.94382,177.1771,0,0
72.50797,-15673.88,-4099.719,-2816.303,-1305.283,-74.21065,157.8317,0,0
72.59092,-15650.97,-4140.179,-2764.386,-1311.366,-65.69177,181.8023,0,0
72.62411,-15651.22,-4114.599,-2757.978,-1302.728,-77.18402,159.9511,0,0
72.6573,-15695.79,-4076.181,-2775.346,-1304.994,-77.38333,158.4592,0,0
72.70708,-15694.41,-4073.445,-2777.638,-1306.74,-82.50665,166.4665,0,0
72.74026,-15701.08,-4106.895,-2759.515,-1308.084,-70.61755,161.5103,0,0
72.80663,-15717.2,-4099.282,-2715.829,-1309.116,-63.17972,182.367,0,0
72.83981,-15710.63,-4106.774,-2764.557,-1301.044,-52.79778,188.8738,0,0
72.88959,-15695.56,-4124.705,-2755.412,-1299.315,-65.3876,157.2388,0,0
72.92276,-15703.93,-4106.272,-2705.296,-1298.013,-68.11619,147.7133,0,0
72.95596,-15712.5,-4105.463,-2734.703,-1288.178,-77.41145,150.9843,0,0
73.00562,-15701.28,-4111.502,-2727.433,-1298.419,-73.4336,136.9023,0,0
73.0721,-15693.76,-4105.045,-2792.899,-1297.418,-56.25654,145.2915,0,0
73.10528,-15681.34,-4091.251,-2777.636,-1296.672,-66.67945,131.2595,0,0
73.15505,-15651.91,-4102.89,-2799.193,-1296.122,-66.35947,122.8008,0,0
73.18823,-15657.15,-4105.169,-2764.697,-1304.585,-69.44598,135.7968,0,0
73.2213,-15647.94,-4099.167,-2788.175,-1302.203,-78.45645,133.0585,0,0
73.30437,-15650.94,-4093.486,-2809.459,-1291.523,-52.65437,136.0011,0,0
73.33755,-15668.82,-4110.219,-2786.917,-1296.669,-65.8964,125.5586,0,0
73.42052,-15667.03,-4105.299,-2750.814,-1296.196,-59.70324,189.3598,0,0
73.48689,-15685.63,-4110.398,-2780.854,-1300.282,-44.4589,177.4709,0,0
73.52007,-15722.01,-4148.638,-2755.113,-1303.417,-49.46035,158.8958,0,0
73.56984,-15684.4,-4116.89,-2846.247,-1301.385,-51.3931,145.4955,0,0
73.60302,-15717.64,-4142.415,-2822.814,-1299.832,-47.92279,96.20866,0,0
73.6362,-15714.2,-4130.864,-2757.143,-1307.513,-49.46108,171.0519,0,0
73.68599,-15699.31,-4110.896,-2808.845,-1313.383,-48.73553,161.0141,0,0
73.71917,-15687.87,-4081.21,-2787.446,-1308.99,-15.25779,108.1655,0,0
73.78552,-15750.01,-4075.171,-2794.32,-1305.613,8.601668,61.43692,0,0
73.81872,-15728.75,-4068.417,-2838.336,-1311.886,-5.418605,115.6015,0,0
73.85191,-15721.25,-4045.617,-2801.016,-1298.945,-4.919472,56.8903,0,0
73.90166,-15732.05,-4075.941,-2808.969,-1302.343,-32.62447,90.24289,0,0
73.93485,-15716.97,-4068.206,-2802.827,-1300.517,-50.83445,68.53854,0,0
73.96803,-15713.12,-4061.255,-2757.107,-1290.265,-71.42182,63.43608,0,0
74.05099,-15721.21,-4058.24,-2779.787,-1286.879,-58.60796,88.49671,0,0
74.08417,-15741.76,-4108.093,-2753.972,-1288.755,-19.97527,116.3669,0,0
74.13394,-15779.54,-4158.421,-2746.475,-1294.655,44.42694,96.18867,0,0
74.15054,-15749.58,-4159.145,-2761.879,-1290.326,15.13878,72.22372,0,0
74.23349,-15748.68,-4124.107,-2724.985,-1287.036,-0.2276628,72.27657,0,0
74.26668,-15749.01,-4131.572,-2721.246,-1288.98,-15.4141,104.5603,0,0
74.34962,-15711.51,-4159.378,-2687.505,-1286.063,-48.70003,115.4659,0,0
74.38282,-15682.79,-4122.936,-2699.547,-1288.292,-11.84621,113.0211,0,0
74.46576,-15721.81,-4135.988,-2717.802,-1290.022,-2.24554,52.16983,0,0
74.49895,-15738.36,-4152.565,-2639.952,-1295.796,-23.22511,115.6813,0,0
74.56522,-15713.3,-4146.328,-2681.45,-1291.359,-25.7458,135.2276,0,0
74.61508,-15728.46,-4139.257,-2650.262,-1292.407,-39.60461,121.8947,0,0
74.64828,-15727.84,-4142.649,-2645.461,-1297.651,-44.66301,153.2126,0,0
74.68145,-15743.96,-4137.429,-2653.106,-1297.233,-80.36021,114.789,0,0
74.7644,-15739.61,-4123.416,-2631.478,-1292.48,-70.75005,133.2876,0,0
74.81417,-15708.53,-4151.448,-2668.343,-1297.714,-58.88046,160.7081,0,0
74.9137,-15683.64,-4149.573,-2650.193,-1297.287,-63.31532,141.7223,0,0
74.94689,-15667.99,-4171.333,-2628.726,-1292.527,-78.28786,158.4306,0,0
74.99667,-15676.06,-4164.615,-2620.269,-1284.462,-75.54008,133.195,0,0
75.02985,-15676.79,-4166.024,-2643.937,-1282.745,-101.332,125.7591,0,0
75.09622,-15654.16,-4143.749,-2657.792,-1285.893,-74.9735,118.4007,0,0
75.146,-15679.06,-4164.324,-2665.2,-1279.462,-64.9749,111.3962,0,0
75.16258,-15658.31,-4133.471,-2665.43,-1274.574,-59.49866,119.3569,0,0
75.21236,-15648.07,-4133.107,-2629.141,-1284.171,-56.66934,120.2001,0,0
75.29532,-15658.08,-4121.75,-2633.653,-1291.538,-100.4638,154.918,0,0
75.3119,-15668.05,-4133.019,-2600.702,-1288.319,-116.4327,115.5112,0,0
75.39487,-15690.16,-4141.646,-2625.546,-1290.294,-117.1573,145.7352,0,0
75.42805,-15714.85,-4114.993,-2608.161,-1287.379,-109.2622,178.797,0,0
75.47783,-15717.1,-4110.137,-2595.034,-1285.157,-93.40896,201.2162,0,0
75.51101,-15725.41,-4118.655,-2596.265,-1287.902,-61.53604,197.1615,1,0
75.54419,-15727.28,-4117.45,-2591.858,-1290.012,-47.38729,187.2564,1,0
75.59396,-15720.88,-4104.371,-2595.321,-1287.199,-63.73701,185.3667,1,0
75.66032,-15703.75,-4099.953,-2632.486,-1289.485,-67.94831,176.3319,1,0
75.69351,-15685.09,-4096.637,-2617.812,-1295.67,-58.14704,186.7794,1,0
75.74327,-15686.35,-4122.97,-2619.974,-1291.531,-74.75169,172.5201,1,0
75.77647,-15701.75,-4089.962,-2584.058,-1292.792,-90.48668,166.5237,1,0
75.80965,-15707.99,-4068.093,-2519.065,-1293.753,-75.33211,145.2698,1,0
75.84283,-15695.03,-4057.016,-2519.469,-1294.483,-71.18389,163.0683,1,0
75.89262,-15675.15,-4057.546,-2581.007,-1295.033,-36.97802,120.7173,1,0
75.95898,-15703.19,-4058.09,-2600.569,-1291.016,-42.15308,128.5147,1,0
75.99217,-15726.86,-4014.323,-2607.874,-1283.509,-60.29472,140.0694,1,0
76.04193,-15731.63,-4037.536,-2595.804,-1282.212,-70.5938,140.6233,1,0
76.07511,-15719.7,-4027.774,-2599.941,-1276.809,-56.58411,172.91,1,0
76.10831,-15733.78,-4020.472,-2620.906,-1272.704,-49.19809,163.7793,1,0
76.15807,-15728.98,-4015.062,-2641.406,-1274.034,-56.03975,156.4718,1,0
76.25797,-15736.33,-4023.288,-2671.473,-1270.656,-67.66437,135.6247,1,0
76.34104,-15757.39,-4024.202,-2684.423,-1268.11,-60.76667,164.8362,1,0
76.35764,-15757.9,-4036.123,-2654.331,-1266.207,-43.027,152.8213,1,0
76.40745,-15773.68,-4047.573,-2624.594,-1264.796,-50.81564,156.629,1,0
76.49046,-15774.54,-4077.462,-2587.448,-1268.195,-62.34385,169.7738,1,0
76.52367,-15752.9,-4052.711,-2606.754,-1266.404,-73.66019,171.7592,1,0
76.55687,-15719.64,-4054.865,-2606.086,-1273.934,-68.44746,162.4281,1,0
76.60667,-15728.52,-4078.719,-2624.465,-1270.857,-63.3323,196.8009,1,0
76.63989,-15687.67,-4058.201,-2675.107,-1281.819,-56.36625,170.1169,1,0
76.67299,-15722.94,-4054.715,-2669.461,-1272.487,-57.41604,191.7456,1,0
76.78931,-15701.19,-4063.169,-2675.018,-1274.223,-55.1839,188.0036,1,0
76.82252,-15703.42,-4040.862,-2651.48,-1275.568,-45.4584,155.1557,1,0
76.87232,-15717.35,-4052.658,-2616.802,-1281.04,-4.53799,154.1093,1,0
76.90553,-15712.51,-4049.547,-2586.974,-1285.227,-3.525708,181.0152,1,0
76.93874,-15723.21,-4058.29,-2621.856,-1279.559,-20.60312,154.4827,1,0
76.97194,-15700.38,-4047.283,-2588.769,-1284.082,-42.0677,168.5224,1,0
77.05495,-15695.13,-4033.365,-2583.479,-1287.537,-50.49594,164.0195,1,0
77.08817,-15711.1,-4028.325,-2565.137,-1290.166,-54.73693,177.7338,1,0
77.12137,-15712.26,-4065.542,-2593.337,-1287.725,-51.05331,189.8557,1,0
77.15458,-15714.26,-4050.828,-2546.319,-1272.547,-76.2069,169.7131,1,0
77.20438,-15718.02,-4073.932,-2606.876,-1278.672,-101.225,176.1533,1,0
77.23759,-15730.86,-4068.33,-2644.408,-1274.506,-79.27845,164.9912,1,0
77.30399,-15715.17,-4054.058,-2637.632,-1275.763,-67.40361,137.6097,1,0
77.38701,-15714.24,-4061.984,-2675.603,-1276.737,-65.76452,77.93375,1,0
77.42022,-15731.26,-4080.241,-2692.359,-1281.923,-99.10939,61.24443,1,0
77.45342,-15738.72,-4105.256,-2692.839,-1277.027,-132.8528,81.37555,1,0
77.53645,-15747.7,-4132.065,-2716.313,-1277.718,-190.0905,132.4088,1,0
77.56965,-15753.4,-4109.232,-2679.801,-1273.821,-268.2379,152.9676,1,0
77.61946,-15742.17,-4081.684,-2629.582,-1279.714,-309.8828,197.2229,1,0
77.68587,-15722.45,-4064.998,-2634.353,-1284.227,-308.2726,280.8433,1,0
77.71909,-15716.21,-4056.671,-2679.002,-1274.377,-291.0242,259.2611,1,0
77.8353,-15734.72,-4039.253,-2653.269,-1280.143,-279.8727,249.696,1,0
77.86851,-15735.56,-4070.304,-2668.982,-1275.693,-265.6856,306.6972,1,0
77.90171,-15727.32,-4105.155,-2629.987,-1263.433,-287.4488,279.3918,1,0
77.95152,-15714.35,-4061.964,-2647.792,-1262.946,-283.8079,226.6665,1,0
77.98472,-15724.39,-4073.227,-2635.929,-1267.042,-279.023,250.7182,1,0
78.03453,-15717.67,-4053.043,-2608.027,-1270.203,-263.145,263.9919,1,0
78.10094,-15750.2,-4027.66,-2708.6,-1272.64,-241.8743,216.0922,1,0
78.13414,-15745.14,-4032.697,-2677.987,-1270.084,-214.877,218.9633,1,0
78.21716,-15740.1,-4028.882,-2732.011,-1277.004,-208.4952,213.6237,1,0
78.25037,-15718.49,-4049.312,-2764.308,-1264.577,-214.3195,233.309,1,0
78.28357,-15755.14,-4058.342,-2782.119,-1263.95,-192.0928,210.905,1,0
78.34997,-15724.41,-4044.219,-2830.908,-1267.93,-185.8342,204.7981,1,0
78.3998,-15714.19,-4084.408,-2859.005,-1275.424,-204.5593,213.9556,1,0
78.433,-15711.93,-4076.353,-2850.166,-1276.73,-221.5998,182.713,1,0
78.46622,-15708.03,-4126.651,-2852.971,-1282.155,-226.5125,26.44907,1,0
78.51601,-15754.93,-4121.81,-2808.209,-1272.998,-212.9937,133.7547,1,0
78.54922,-15717.65,-4076.984,-2831.288,-1265.991,-194.8165,106.3776,1,0
78.61564,-15713.51,-4031.567,-2810.999,-1256.216,-188.9058,109.9768,1,0
78.64883,-15709.25,-4067.783,-2832.9,-1257.637,-192.6799,77.1767,1,0
78.69865,-15692.74,-4001.352,-2776.284,-1258.763,-198.8759,-29.95356,1,0
78.74837,-15749.97,-4021.544,-2705.119,-1264.089,-182.5409,-126.4578,1,0
78.76507,-15814.77,-3978.394,-2719.369,-1268.185,-145.3941,-119.9058,1,0
78.81487,-15803.24,-3981.003,-2726.975,-1262.467,-118.7101,-88.22631,1,0
78.88129,-15792.03,-4010.878,-2774.896,-1271.403,-103.4185,-387.4837,1,0
78.91449,-15772.22,-3908.671,-2630.902,-1264.949,-58.93556,-564.187,1,0
78.96415,-15814.58,-3869.523,-2456.629,-1264.453,-57.27991,-590.2,1,0
78.99751,-15814.7,-3870.978,-2400.262,-1264.087,-77.88122,-591.6951,1,0
