Time,Ax,Ay,Az,Gx,Gy,Gz,Breathing,Ground Truth
9.586675,0,0,0,0,0,0,0,0
9.586675,-16352,-880,1804,-1696,-150,264,0,0
9.586675,-16252,-968,1744,-1712,59,26,0,0
9.752539,-16324,-1000,1828,-1712,-192,307,0,0
9.769125,-16372,-936,1880,-1728,-92,203,0,0
9.785711,-16044,-1048,1724,-1712,-150,312,0,0
9.802296,-16112,-952,1628,-1728,-70,184,0,0
9.81888,-16140,-1028,1564,-1712,-107,287,0,0
9.81888,-16444,-1088,1608,-1744,-105,193,0,0
9.81888,-15860,-852,1628,-1744,-145,182,0,0
9.81888,-16556,-1116,1668,-1712,-134,211,0,0
9.81888,-16028,-924,1504,-1744,-27,23,0,0
9.81888,-16424,-928,1868,-1744,-139,247,0,0
9.835467,-16256,-1028,1716,-1744,-132,233,0,0
9.852056,-16340,-1072,1568,-1744,-219,326,0,0
9.885223,-16436,-1160,1904,-1712,-263,661,0,0
9.885223,-16408,-1264,1588,-1712,-39,115,0,0
9.918399,-16732,-1288,1744,-1744,-165,428,0,0
9.951569,-16124,-1020,1592,-1712,-84,107,0,0
9.96815,-16200,-956,1724,-1712,-319,381,0,0
10.00133,-16280,-992,1688,-1696,-189,191,0,0
10.00133,-16364,-948,1664,-1712,-117,173,0,0
10.05108,-16100,-996,1644,-1728,-118,290,0,0
10.05108,-16328,-1128,1540,-1712,19,126,0,0
10.06766,-16016,-1004,1624,-1728,-118,252,0,0
10.11742,-16264,-1076,1704,-1712,-213,399,0,0
10.11742,-16372,-1284,1532,-1744,-283,435,0,0
10.15093,-16252,-1192,1684,-1712,-239,316,0,0
10.15093,-16324,-1184,1604,-1712,-294,406,0,0
10.1841,-16184,-1152,1596,-1712,-458,618,0,0
10.1841,-16324,-912,1788,-1712,-117,88,0,0
10.23387,-16068,-984,1508,-1712,-146,401,0,0
10.25047,-16436,-1100,1440,-1728,-40,226,0,0
10.25047,-16380,-1144,1344,-1760,-13,112,0,0
10.30023,-16384,-1056,1544,-1712,61,24,0,0
10.33341,-16484,-1100,1632,-1712,61,345,0,0
10.34987,-16280,-1148,1344,-1696,-14,299,0,0
10.38319,-16100,-1036,1532,-1712,-162,189,0,0
10.38319,-16304,-1132,1744,-1728,-153,220,0,0
10.41636,-16500,-1176,1508,-1712,-20,84,0,0
10.44954,-16380,-1024,1352,-1712,-62,270,0,0
10.44954,-16400,-920,1136,-1696,3,133,0,0
10.48272,-16444,-1032,1264,-1712,-105,445,0,0
10.5159,-16516,-1084,1548,-1712,-74,407,0,0
10.53249,-16388,-1232,1576,-1712,-130,660,0,0
10.56567,-16284,-1276,1436,-1712,-205,491,0,0
10.63202,-16284,-1048,1412,-1712,-254,679,0,0
10.64861,-16084,-956,1248,-1712,-36,236,0,0
10.68179,-16252,-988,1388,-1696,-4,230,0,0
10.68179,-16600,-1164,1264,-1728,77,223,0,0
10.71497,-16372,-1188,1008,-1728,115,58,0,0
10.74815,-16288,-1176,1428,-1696,-83,272,0,0
10.74815,-16388,-1140,1240,-1712,34,-12,0,0
10.78133,-16136,-1032,1412,-1696,-49,47,0,0
10.8145,-16284,-1176,1440,-1712,-10,121,0,0
10.86427,-16332,-1312,1452,-1696,-98,336,0,0
10.88086,-16592,-1412,1232,-1712,-227,381,0,0
10.93062,-16336,-1288,1200,-1744,-293,387,0,0
10.96381,-16164,-1136,1152,-1680,-301,227,0,0
10.98039,-16592,-1168,1256,-1712,-266,246,0,0
11.06334,-16444,-1008,1520,-1728,-215,583,0,0
11.07993,-15976,-764,1308,-1712,31,340,0,0
11.07993,-16360,-944,1156,-1680,-17,410,0,0
11.16287,-16588,-1268,1192,-1728,-109,556,0,0
11.19606,-16516,-1192,1324,-1696,15,485,0,0
11.19606,-16180,-1016,1212,-1712,78,465,0,0
11.22923,-16060,-1168,1160,-1712,142,178,0,0
11.24581,-16356,-1264,1316,-1712,37,384,0,0
11.26241,-16608,-1440,1192,-1696,-34,427,0,0
11.31217,-16240,-1348,848,-1696,-56,-13,0,0
11.34535,-16360,-1176,948,-1680,-342,275,0,0
11.36194,-16680,-1236,1124,-1680,-12,48,0,0
11.37853,-16144,-1084,1264,-1680,120,-176,0,0
11.4283,-16376,-1148,1144,-1696,-6,168,0,0
11.46147,-16308,-1344,940,-1712,-56,-87,0,0
11.49465,-16304,-1112,1068,-1712,-169,135,0,0
11.54441,-16528,-1188,1188,-1728,44,-46,0,0
11.57758,-16248,-1132,1336,-1712,127,-60,0,0
11.61077,-16296,-1228,1312,-1696,158,-34,0,0
11.61077,-16448,-1368,1288,-1696,397,-563,0,0
11.64395,-16200,-1316,1128,-1680,188,-166,0,0
11.72689,-16152,-1268,1128,-1696,-46,-11,0,0
11.72689,-16300,-1064,1356,-1728,-23,-76,0,0
11.76005,-16424,-1068,1248,-1712,84,-78,0,0
11.79325,-16172,-1184,1340,-1696,-35,62,0,0
11.82642,-16452,-1212,1356,-1680,-255,346,0,0
11.87619,-16376,-1192,1028,-1712,-184,-41,0,0
11.87619,-16200,-852,1340,-1712,-305,180,0,0
11.90937,-16392,-776,1896,-1712,-76,379,0,0
11.95914,-16320,-1032,1496,-1728,247,262,0,0
11.99231,-16104,-1252,1116,-1712,106,286,0,0
12.02549,-16408,-1296,1052,-1680,-133,576,0,0
12.09185,-16584,-1508,1048,-1712,-149,301,0,0
12.10844,-15988,-1184,1108,-1680,-350,389,0,0
12.12503,-16412,-1192,1312,-1728,-377,328,0,0
12.1748,-16160,-948,1312,-1680,-233,143,0,0
12.1748,-16332,-1000,1508,-1680,-324,459,0,0
12.20798,-16316,-1060,1336,-1680,-147,48,0,0
12.24116,-16192,-1024,1208,-1680,-271,181,0,0
12.25775,-16496,-832,1300,-1696,-217,17,0,0
12.3241,-16276,-788,1320,-1680,-35,-94,0,0
12.3241,-16364,-868,1244,-1728,-103,477,0,0
12.35728,-16500,-956,1000,-1696,-21,203,0,0
12.39046,-16088,-956,1144,-1728,-79,67,0,0
12.44022,-16288,-964,1456,-1680,-228,240,0,0
12.47339,-16620,-1128,1280,-1680,-145,145,0,0
12.52316,-16440,-1000,1204,-1712,-189,256,0,0
12.55634,-16036,-920,1136,-1728,-158,-123,0,0
12.62269,-16100,-824,1260,-1696,-202,102,0,0
12.63928,-16572,-948,1212,-1680,-101,89,0,0
12.65587,-16588,-952,1308,-1696,-103,316,0,0
12.65587,-16428,-968,1156,-1712,-70,187,0,0
12.70564,-16216,-980,1036,-1664,-185,210,0,0
12.73881,-16392,-740,1140,-1664,-258,307,0,0
12.73881,-16460,-760,1464,-1696,-105,303,0,0
12.77199,-16660,-952,1228,-1680,-59,468,0,0
12.80517,-16292,-1048,1028,-1696,-70,333,0,0
12.85493,-16320,-1156,1064,-1664,-148,331,0,0
12.88811,-16200,-884,1288,-1664,19,-3,0,0
12.92129,-16376,-808,1352,-1728,13,204,0,0
12.95447,-16432,-808,1400,-1712,156,245,0,0
12.97106,-16360,-1032,948,-1648,183,278,0,0
13.03741,-16356,-1080,996,-1680,65,94,0,0
13.07059,-16224,-1044,980,-1680,-62,74,0,0
13.07059,-16180,-788,1252,-1664,-54,-141,0,0
13.10377,-16596,-940,1316,-1664,84,9,0,0
13.15354,-16556,-956,1400,-1664,349,135,0,0
13.18671,-16188,-872,1420,-1696,543,66,0,0
13.18671,-16100,-684,1304,-1712,587,363,0,0
13.21989,-16144,-724,1708,-1664,623,1359,0,0
13.25307,-15948,-1112,2612,-1696,1755,697,0,0
13.30284,-14840,-268,2972,-1680,3159,342,0,0
13.33602,-14852,-1468,956,-1712,1657,4188,0,0
13.33602,-16444,-2200,-576,-1680,-407,4638,0,0
13.40237,-18588,-3272,56,-1680,594,1909,0,0
13.43554,-17584,-3444,-988,-1712,929,757,0,0
13.45213,-15012,-1864,60,-1664,998,561,0,0
13.48532,-15892,-1928,1040,-1680,2325,1168,0,0
13.56826,-15908,-2692,984,-1664,4413,1039,0,0
13.60143,-17152,-3144,380,-1680,5750,-761,0,0
13.60143,-16476,-3244,-144,-1648,5173,-2703,0,0
13.63461,-15968,-2524,752,-1664,1834,-1760,0,0
13.63461,-16552,-1984,1012,-1696,780,-124,0,0
13.66779,-15972,-2272,1048,-1664,-324,576,0,0
13.70096,-16192,-3264,804,-1664,-871,431,0,0
13.75073,-16204,-2808,-16,-1696,-2641,-413,0,0
13.78391,-16268,-2156,680,-1664,-2386,-828,0,0
13.81708,-16588,-1980,1148,-1696,-2546,190,0,0
13.81708,-16048,-1512,1028,-1696,-1564,472,0,0
13.90002,-16464,-1848,1180,-1712,-827,1728,0,0
13.98296,-16564,-2668,876,-1680,9,1617,0,0
13.99987,-15804,-2736,504,-1664,584,-806,0,0
13.99987,-16580,-2932,600,-1696,-14,-1102,0,0
14.04963,-16036,-3264,508,-1632,-47,-1906,0,0
14.04963,-16156,-2516,684,-1648,258,-2650,0,0
14.08281,-16436,-2368,1584,-1648,-364,-2455,0,0
14.11598,-16216,-1812,2048,-1664,-915,2570,0,0
14.13257,-16416,-2992,1384,-1664,-320,5072,0,0
14.14916,-15584,-3552,100,-1712,10,2437,0,0
14.19892,-16612,-3532,1760,-1696,-10,523,0,0
14.2321,-15668,-1620,1964,-1648,-11,3767,0,0
14.26527,-16184,-4204,-1172,-1696,-370,3586,0,0
14.31503,-15972,-3760,-1308,-1664,-731,-1924,0,0
14.31503,-16488,-2936,728,-1680,-839,-1815,0,0
14.3482,-15032,-2156,-980,-1664,-357,-381,0,0
14.38138,-15636,-4208,-392,-1664,266,4077,0,0
14.41455,-16028,-3940,-708,-1664,752,-5167,0,0
14.49748,-16144,-2456,1220,-1680,692,-6092,0,0
14.49748,-16332,-2312,1876,-1680,545,-1970,0,0
14.53066,-15988,-3888,2264,-1648,330,-281,0,0
14.61359,-16076,-3360,264,-1696,386,-407,0,0
14.61359,-16016,-3304,1648,-1664,205,-628,0,0
14.64677,-16196,-3012,1440,-1648,-94,1609,0,0
14.67994,-15800,-3172,332,-1648,41,1579,0,0
14.67994,-16172,-2980,728,-1680,102,-58,0,0
14.7297,-16340,-3132,1124,-1648,-287,1388,0,0
14.76288,-15872,-3100,1044,-1664,127,1063,0,0
14.79605,-16200,-3000,1204,-1664,413,1217,0,0
14.79605,-15964,-3168,1048,-1680,629,2288,0,0
14.84618,-15960,-3192,1132,-1648,433,3569,0,0
14.87936,-15836,-3524,220,-1680,300,4801,0,0
14.91255,-15556,-3924,-608,-1680,237,3909,0,0
14.94573,-15992,-4124,-284,-1664,161,1202,0,0
15.02868,-16088,-4004,-300,-1664,513,2802,0,0
15.02868,-15544,-5244,-1440,-1648,699,1449,0,0
15.06186,-15796,-4868,-748,-1712,752,-2277,0,0
15.09505,-15392,-4816,-312,-1648,1128,-2941,0,0
15.09505,-16040,-4640,476,-1648,1140,-2028,0,0
15.14482,-15960,-4300,532,-1712,696,-1267,0,0
15.178,-16276,-3448,2044,-1664,87,1855,0,0
15.21118,-15996,-3944,-356,-1648,-395,4700,0,0
15.24436,-15624,-4788,-1124,-1664,-585,2823,0,0
15.29413,-15160,-4704,-520,-1664,440,323,0,0
15.31072,-16148,-4748,-1144,-1664,-1042,-1526,0,0
15.31072,-16408,-3996,1004,-1664,-998,294,0,0
15.36049,-15752,-4800,-632,-1664,-899,3656,0,0
15.42685,-15068,-3716,120,-1664,2336,3108,0,0
15.47662,-16644,-5352,-1012,-1648,563,3263,0,0
15.47662,-15728,-5236,-1744,-1680,1063,2547,0,0
15.54297,-15684,-5352,-1648,-1648,-381,-686,0,0
15.55957,-15356,-5716,-2144,-1696,-257,-4464,0,0
15.55957,-15960,-4112,276,-1664,-567,-6475,0,0
15.60934,-16160,-3500,1208,-1680,-417,-1252,0,0
15.64252,-16016,-3864,404,-1648,404,1822,0,0
15.64252,-15640,-4720,-604,-1680,-85,988,0,0
15.6757,-15804,-4924,-420,-1664,-884,-1090,0,0
15.70888,-15944,-4056,860,-1680,-1721,1169,0,0
15.79183,-15488,-4104,-20,-1680,-101,2548,0,0
15.79183,-15488,-4576,-528,-1632,183,989,0,0
15.82502,-15680,-4432,-836,-1680,-527,1411,0,0
15.84161,-15776,-4084,-600,-1648,358,-647,0,0
15.87479,-15756,-4144,-324,-1680,336,-584,0,0
15.94115,-16032,-4208,-204,-1664,272,438,0,0
15.99092,-15688,-4924,-456,-1680,-15,230,0,0
15.99092,-16084,-4704,-672,-1632,-1089,401,0,0
16.02408,-15668,-4636,-480,-1696,-438,380,0,0
16.05726,-16072,-4532,-16,-1648,-829,1466,0,0
16.05726,-15480,-5128,-1036,-1680,-536,888,0,0
16.09044,-15836,-5144,-1032,-1648,-1264,-437,0,0
16.14021,-16020,-4348,-448,-1664,-1313,-445,0,0
16.17339,-16120,-4224,-348,-1648,-1388,828,0,0
16.20658,-15668,-4256,-920,-1664,-961,-665,0,0
16.23976,-15960,-3964,-484,-1664,-336,-1001,0,0
16.27294,-15836,-3804,-544,-1680,-490,-333,0,0
16.30612,-15936,-3696,-564,-1648,-185,-531,0,0
16.35589,-15800,-3724,-316,-1664,5,-632,0,0
16.35589,-16140,-4156,-552,-1648,-19,-1216,0,0
16.47203,-15960,-3748,-384,-1680,-184,-1540,0,0
16.47203,-16144,-3848,-320,-1632,-398,-1399,0,0
16.50521,-16056,-3388,-132,-1680,-1018,-484,0,0
16.58816,-15920,-3512,136,-1664,-1116,424,0,0
16.58816,-16180,-3576,-64,-1680,-1014,-182,0,0
16.62134,-16036,-3424,-280,-1648,-820,-377,0,0
16.62134,-15936,-3276,392,-1664,-611,-475,0,0
16.65451,-15900,-3036,116,-1648,-547,60,0,0
16.68769,-16116,-3040,0,-1664,-292,-189,0,0
16.70429,-16140,-3272,-132,-1648,-368,-723,0,0
16.72087,-16200,-2940,-492,-1664,-145,-367,0,0
16.80383,-16284,-2848,516,-1664,236,1046,0,0
16.83701,-15964,-3772,-248,-1648,729,1822,0,0
16.8536,-15904,-3076,96,-1616,1301,-156,0,0
16.87019,-16356,-3564,140,-1648,1276,1479,0,0
16.91997,-16092,-3400,-204,-1664,747,1867,0,0
16.95315,-16268,-3604,-728,-1680,129,1321,0,0
16.98633,-16220,-3572,-412,-1664,-116,1805,0,0
17.00292,-16112,-3400,-80,-1616,-116,3475,0,0
17.06928,-15764,-3660,-800,-1648,-331,3692,0,0
17.10246,-15828,-3836,-1140,-1648,411,721,0,0
17.10246,-15696,-3864,-808,-1632,715,-1230,0,0
17.15223,-16048,-4128,-844,-1648,35,-1747,0,0
17.18541,-16072,-3756,-804,-1632,-445,-2577,0,0
17.18541,-15992,-3604,-536,-1616,-1365,-1533,0,0
17.21859,-16272,-3524,-284,-1632,-1609,24,0,0
17.25178,-16376,-4048,-1012,-1648,-2601,650,0,0
17.28496,-16040,-3920,-1344,-1648,-3272,549,0,0
17.33473,-15572,-4184,-2084,-1664,-5186,2116,0,0
17.36791,-16372,-3700,-1620,-1648,-5534,782,0,0
17.40109,-18016,-4300,-1700,-1680,-5235,371,0,0
17.43427,-16884,-3640,-1796,-1680,-6068,-503,0,0
17.45086,-14780,-1748,-244,-1648,-6452,-698,0,0
17.48404,-15408,-1396,648,-1632,-5272,517,0,0
17.51723,-17316,-2700,-668,-1648,-3729,265,0,0
17.55041,-15752,-2108,-904,-1648,-4043,15,0,0
17.58359,-15460,-1520,-112,-1648,-3829,1407,0,0
17.63336,-16308,-2156,-1104,-1648,-2611,1368,0,0
17.66655,-16420,-2912,-2540,-1648,-2801,747,0,0
17.69969,-16268,-2976,-2092,-1648,-3690,133,0,0
17.71632,-13656,-1032,-1012,-1648,-2196,80,0,0
17.7495,-15640,-1452,-804,-1616,-871,2081,0,0
17.81586,-16284,-2424,-2696,-1648,-3087,6574,0,0
17.83245,-15744,-1348,-1532,-1616,-3095,4444,0,0
17.84904,-16540,-1740,-2100,-1664,-887,2850,0,0
17.93199,-15788,-2196,-2644,-1664,-449,1574,0,0
17.96518,-17380,-2396,-1540,-1680,349,-158,0,0
17.96518,-14712,-916,-2044,-1632,-436,5089,0,0
18.04813,-16460,-2692,-3660,-1664,-186,6087,0,0
18.04813,-16448,-2948,-4368,-1648,573,2420,0,0
18.08131,-14796,-2828,-4524,-1648,900,-217,0,0
18.11449,-15536,-3468,-4928,-1664,710,2844,0,0
18.11449,-16308,-3240,-5028,-1680,960,1354,0,0
18.14767,-16628,-3340,-4396,-1664,3608,-1918,0,0
18.19744,-14696,2680,-5580,-1632,2543,-3712,0,0
18.23063,-16680,-3608,-2640,-1616,342,-765,0,0
18.26381,-16920,-2680,-2264,-1648,-347,2593,0,0
18.26381,-16808,-3112,-2944,-1632,-4622,1219,0,0
18.34676,-16188,-3528,-3624,-1664,-1487,-2658,0,0
18.37994,-15524,-3860,-2800,-1664,-1126,-2192,0,0
18.41312,-16124,-2540,-3556,-1616,-883,-5492,0,0
18.41312,-15688,-2740,-2624,-1648,-516,-6519,0,0
18.44631,-16212,-2468,-2692,-1664,-629,-3029,0,0
18.49608,-15980,-2408,-2868,-1632,-716,-3429,0,0
18.52925,-16316,-1732,-3452,-1648,1808,-5921,0,0
18.56244,-15488,-2328,-2428,-1632,2120,-6912,0,0
18.57903,-15700,-1216,-532,-1648,893,-3405,0,0
18.61221,-12236,824,772,-1616,-3461,2870,0,0
18.64539,-16028,-2572,400,-1648,-1047,4254,0,0
18.67857,-15584,-2496,240,-1648,-2341,7722,0,0
18.71175,-15716,-2084,-1380,-1648,-2192,9202,0,0
18.76152,-14944,-1152,-2252,-1648,-3072,9503,0,0
18.7947,-17376,-488,-5868,-1632,-452,5180,0,0
18.82788,-16932,-264,-4664,-1616,-241,2549,0,0
18.86084,-17440,16,-4712,-1632,905,2309,0,0
18.87765,-16856,388,-5096,-1632,2282,-2795,0,0
18.94386,-14912,-476,-2684,-1600,1249,-3713,0,0
18.94386,-14388,448,-3468,-1648,1511,-1773,0,0
18.9772,-14900,-644,-3556,-1616,-383,-1000,0,0
19.02697,-16584,-2672,-1716,-1584,-3825,-8202,0,0
19.06015,-17796,-760,-5004,-1632,1063,-1680,0,0
19.09489,-14632,-220,-2324,-1632,-323,-317,0,0
19.12757,-16776,-1784,-664,-1632,-7784,8269,0,0
19.12757,-17012,460,-4176,-1632,-7352,12562,0,0
19.21052,-16276,752,-4092,-1616,-642,5855,0,0
19.21052,-16232,3320,-7424,-1632,1155,4699,0,0
19.32664,-16704,1352,-6040,-1600,22897,-13945,0,0
19.32664,-18664,548,-2752,-1616,7880,-5222,0,0
19.39299,-19812,1384,-3152,-1632,8273,-11609,0,0
19.40958,-15572,1776,12,-1600,4567,-13319,0,0
19.42617,-14612,948,-1024,-1632,3832,-1497,0,0
19.47594,-15628,112,-2924,-1664,1749,8846,0,0
19.47594,-16340,1736,-2888,-1616,5928,51,0,0
19.50912,-18300,3688,696,-1632,12072,-7135,0,0
19.50912,-18404,-2604,-6604,-1664,15556,-14881,0,0
19.54229,-17740,-8972,8640,-1632,20210,-7818,0,0
19.59206,-10832,-2564,2896,-1648,2663,18927,0,0
19.60851,-16032,128,-9556,-1616,-2392,22308,0,0
19.60851,-14316,-1316,-6356,-1616,2171,-3162,0,0
19.65842,-14092,-1276,1572,-1648,3138,-4389,0,0
19.72478,-17288,-1276,-372,-1632,2121,-3369,0,0
19.74137,-16420,-2128,-676,-1648,1624,1249,0,0
19.80772,-16948,-2128,-3560,-1648,936,2193,0,0
19.84091,-16716,-1852,-3612,-1616,683,453,0,0
19.85749,-17384,-1404,-2592,-1648,18,-2268,0,0
19.92385,-16488,252,1704,-1616,-1659,-1801,0,0
19.95703,-15032,1840,3640,-1648,3383,751,0,0
19.95703,-14904,-2932,-448,-1616,6041,-90,0,0
20.0068,-14924,-1984,-1872,-1632,4515,-5102,0,0
20.02339,-16408,-1232,-556,-1632,63,-4619,0,0
20.03997,-17200,-1780,792,-1664,-1592,-434,0,0
20.07315,-16904,-1500,-288,-1616,-1637,2349,0,0
20.10633,-16176,-1204,-572,-1648,-1612,2591,0,0
20.13951,-15720,-728,-744,-1632,-2011,1851,0,0
20.1561,-16336,-1256,-496,-1616,-3977,491,0,0
20.18928,-16464,-696,-580,-1632,-2924,-1738,0,0
20.22246,-16900,-1348,-136,-1616,-2724,-501,0,0
20.25564,-16888,-1304,-492,-1616,-3256,1657,0,0
20.33858,-16140,-1184,-992,-1632,-1755,1296,0,0
20.37176,-16300,-1228,-1136,-1616,-929,1453,0,0
20.40494,-16300,-2164,-844,-1632,-1116,1507,0,0
20.40494,-15880,-1872,-808,-1648,-695,1123,0,0
20.43812,-16208,-2192,-1100,-1632,-688,220,0,0
20.48789,-16180,-2144,-808,-1616,-1587,-457,0,0
20.52106,-16304,-1968,-332,-1648,-2191,290,0,0
20.52106,-16412,-2044,-840,-1616,-1914,755,0,0
20.55424,-16080,-2060,-1408,-1632,-1534,279,0,0
20.58742,-16272,-2048,-1500,-1648,-1397,-43,0,0
20.63719,-16460,-1588,-948,-1616,-706,-204,0,0
20.67037,-16728,-1620,-1064,-1600,-230,256,0,0
20.70355,-16408,-2240,-1224,-1632,-444,1383,0,0
20.75332,-16132,-2064,-1112,-1616,-664,1539,0,0
20.7865,-16196,-1816,-976,-1616,-186,1080,0,0
20.81968,-16256,-1968,-1260,-1632,-6,644,0,0
20.85286,-16320,-1968,-1144,-1584,-50,-407,0,0
20.90262,-16340,-2232,-1256,-1648,-387,-205,0,0
20.90262,-16428,-1912,-1340,-1632,-395,47,0,0
20.9358,-16116,-1996,-1388,-1616,195,319,0,0
20.96898,-16292,-2168,-1608,-1616,156,595,0,0
21.00216,-16252,-1860,-1168,-1600,-87,570,0,0
21.01875,-16256,-1624,-892,-1616,174,484,0,0
21.08511,-16308,-2084,-1224,-1632,163,763,0,0
21.08511,-16160,-2100,-1344,-1616,186,547,0,0
21.11829,-16280,-2108,-1340,-1648,25,92,0,0
21.16805,-16392,-2008,-1468,-1632,-261,433,0,0
21.18465,-16140,-1864,-1436,-1616,-451,649,0,0
21.23392,-16364,-1944,-1556,-1632,36,-52,0,0
21.2671,-16600,-1864,-1272,-1584,124,437,0,0
21.31684,-16280,-2228,-1600,-1616,206,876,0,0
21.38318,-16076,-2008,-1564,-1632,-170,1040,0,0
21.38318,-16124,-1784,-1232,-1600,161,882,0,0
21.41635,-16228,-1952,-1748,-1616,166,493,0,0
21.41635,-16016,-2332,-1792,-1616,39,335,0,0
21.4661,-16060,-1888,-1660,-1616,76,-31,0,0
21.49928,-16356,-2096,-1456,-1616,-248,-229,0,0
21.53244,-16316,-2012,-1368,-1648,-1231,972,0,0
21.56561,-16144,-1508,-2304,-1616,-898,1305,0,0
21.56561,-16020,-1520,-2324,-1648,-46,-168,0,0
21.61537,-16384,-1516,-1740,-1600,133,-621,0,0
21.64854,-16484,-1508,-1728,-1616,322,-542,0,0
21.68171,-16568,-1264,-1252,-1584,287,-272,0,0
21.71488,-16384,-1744,-1432,-1616,-26,926,0,0
21.76463,-16228,-1660,-1860,-1600,-81,581,0,0
21.7978,-16036,-1524,-1408,-1616,-377,14,0,0
21.83097,-16220,-1492,-1752,-1632,-93,27,0,0
21.83097,-16452,-1236,-1568,-1632,90,-238,0,0
21.86414,-16544,-1480,-1480,-1632,969,17,0,0
21.91389,-16276,-2000,-2256,-1616,695,551,0,0
21.94707,-16340,-2024,-2168,-1600,174,269,0,0
21.98023,-16376,-2236,-2016,-1632,-479,211,0,0
22.0134,-16408,-1940,-1360,-1616,-1128,337,0,0
22.04657,-16352,-1384,-940,-1648,-1098,930,0,0
22.09616,-16032,-1252,-1436,-1616,-709,623,0,0
22.09616,-16352,-1284,-1580,-1616,-468,-170,0,0
22.1295,-16492,-1208,-1788,-1600,-87,-439,0,0
22.21242,-16460,-1112,-1740,-1632,481,-294,0,0
22.21242,-16316,-1668,-2256,-1600,312,921,0,0
22.24559,-16264,-1592,-2172,-1600,89,363,0,0
22.32851,-16452,-1688,-1688,-1616,597,-241,0,0
22.32851,-16208,-1932,-1772,-1632,71,141,0,0
22.3451,-16252,-1708,-1832,-1632,-339,-77,0,0
22.39485,-16464,-1560,-1224,-1648,-674,21,0,0
22.39485,-16692,-1624,-1216,-1616,-580,680,0,0
22.42802,-16284,-1600,-1780,-1616,-703,1043,0,0
22.46156,-16068,-1440,-2280,-1616,-480,570,0,0
22.51131,-16356,-1280,-1852,-1616,180,59,0,0
22.54452,-16212,-1408,-1896,-1600,314,405,0,0
22.5777,-16196,-1668,-2048,-1616,60,571,0,0
22.62747,-16112,-1452,-1828,-1600,-268,623,0,0
22.62747,-16380,-1624,-1968,-1600,129,-229,0,0
22.72702,-16288,-1692,-2080,-1616,-69,-133,0,0
22.72702,-16440,-1632,-1968,-1584,-270,253,0,0
22.7602,-16308,-1720,-1812,-1600,-457,871,0,0
22.77679,-16184,-1568,-1516,-1600,-617,1140,0,0
22.80997,-16072,-1644,-1740,-1632,-355,740,0,0
22.84315,-16244,-1516,-1988,-1600,-42,-319,0,0
22.87633,-16308,-1272,-2036,-1616,110,-636,0,0
22.9261,-16468,-1528,-2056,-1616,134,-423,0,0
22.95928,-16612,-1256,-1952,-1584,536,-218,0,0
22.95928,-16272,-1220,-1832,-1600,686,330,0,0
22.99247,-16136,-1180,-2192,-1584,874,95,0,0
23.02565,-16384,-1776,-2152,-1568,900,-159,0,0
23.07542,-16444,-1932,-1928,-1616,231,-38,0,0
23.1086,-16060,-1908,-1772,-1616,448,468,0,0
23.14178,-16308,-2252,-1688,-1568,368,653,0,0
23.17496,-16216,-2412,-1704,-1584,-215,531,0,0
23.19155,-16060,-2316,-1536,-1600,-426,-149,0,0
23.25792,-16136,-2204,-1652,-1632,-561,91,0,0
23.2911,-16168,-1684,-1924,-1600,-411,-86,0,0
23.2911,-16372,-1624,-1920,-1632,-187,-519,0,0
23.32428,-16624,-1632,-1900,-1584,-35,47,0,0
23.37404,-16272,-1512,-2120,-1632,-174,196,0,0
23.40722,-16372,-1304,-1680,-1584,-128,-271,0,0
23.44041,-16228,-1520,-1496,-1600,-77,-23,0,0
23.47359,-16544,-1620,-1304,-1616,-13,-29,0,0
23.47359,-16212,-1636,-1316,-1616,193,250,0,0
23.52318,-16148,-1976,-1996,-1600,113,318,0,0
23.55654,-16160,-2328,-2072,-1584,-214,393,0,0
23.58972,-16384,-2528,-2048,-1616,-963,339,0,0
23.67267,-16400,-2196,-1348,-1616,-1136,503,0,0
23.67267,-16088,-1952,-1596,-1600,-817,898,0,0
23.70585,-16048,-1856,-1752,-1616,-540,573,0,0
23.73903,-16144,-1548,-1776,-1584,-196,-237,0,0
23.73903,-16304,-1476,-1880,-1584,62,-358,0,0
23.7888,-16444,-1224,-1876,-1600,353,-289,0,0
23.82199,-16456,-1460,-1852,-1584,381,30,0,0
23.85517,-16296,-1716,-2036,-1616,266,480,0,0
23.88835,-16208,-2204,-2148,-1568,-198,289,0,0
23.93812,-16256,-2320,-1704,-1600,-1034,505,0,0
23.9713,-16128,-2132,-1556,-1584,-1481,581,0,0
24.00449,-16308,-1824,-1912,-1568,-1500,-287,0,0
24.03767,-16476,-1448,-1380,-1600,-1423,-76,0,0
24.05426,-16420,-1148,-1596,-1616,-704,946,0,0
24.08744,-16256,-1468,-1812,-1568,-208,1438,0,0
24.12062,-16212,-1256,-2296,-1584,189,1059,0,0
24.1538,-16224,-1428,-2072,-1600,755,249,0,0
24.20357,-16388,-1928,-2512,-1616,434,211,0,0
24.23675,-16236,-1732,-2552,-1600,155,279,0,0
24.26993,-16528,-1656,-2276,-1616,-285,477,0,0
24.30311,-16268,-1516,-1688,-1568,-272,620,0,0
24.30311,-16236,-1832,-1828,-1632,-256,866,0,0
24.33629,-15936,-1924,-1824,-1584,-102,636,0,0
24.38606,-15984,-1848,-2304,-1600,-406,489,0,0
24.41924,-16248,-1680,-2556,-1616,-85,-303,0,0
24.46902,-16416,-1296,-2044,-1600,-367,43,0,0
24.48561,-16420,-1236,-2308,-1632,33,623,0,0
24.53538,-16332,-1496,-2420,-1616,114,599,0,0
24.56856,-16228,-1508,-2376,-1616,-36,641,0,0
24.56856,-16116,-1512,-2276,-1568,67,238,0,0
24.61833,-16204,-1512,-2220,-1600,64,60,0,0
24.63492,-16196,-1392,-2340,-1568,46,-86,0,0
24.68469,-16488,-1748,-2528,-1584,-34,-132,0,0
24.71787,-16260,-1328,-1984,-1568,-117,232,0,0
24.75105,-16308,-1464,-2160,-1616,-50,589,0,0
24.83401,-16204,-1404,-2404,-1600,-9,324,0,0
24.86719,-16056,-1308,-2380,-1632,13,-73,0,0
24.91696,-16380,-1308,-2372,-1600,254,-439,0,0
24.91696,-16396,-1476,-2248,-1600,206,86,0,0
24.95014,-16320,-1292,-2420,-1600,100,174,0,0
24.98332,-16340,-1536,-2352,-1600,330,-36,0,0
24.98332,-16172,-1540,-2576,-1584,50,-179,0,0
25.0165,-16220,-1516,-2136,-1568,-180,-255,0,0
25.04968,-16172,-1248,-1796,-1600,-26,-280,0,0
25.09946,-16496,-1368,-2232,-1568,29,252,0,0
25.13264,-16264,-1264,-1932,-1568,-191,418,0,0
25.16582,-16132,-1180,-2196,-1584,215,202,0,0
25.199,-16376,-1436,-2356,-1600,11,170,0,0
25.21559,-16364,-1112,-2088,-1584,-209,151,0,0
25.24877,-16180,-1296,-2124,-1600,-390,91,0,0
25.28195,-16420,-1176,-2116,-1568,-33,932,0,0
25.31513,-16364,-1772,-2632,-1584,103,504,0,0
25.34831,-16112,-1276,-2280,-1584,81,135,0,0
25.39808,-16180,-864,-2264,-1584,554,-63,0,0
25.39808,-16424,-1592,-2264,-1584,523,-378,0,0
25.43126,-16444,-1624,-1932,-1600,350,29,0,0
25.46445,-16296,-1656,-2180,-1584,168,295,0,0
25.51422,-16256,-1700,-2312,-1568,121,26,0,0
25.5474,-16060,-1048,-1780,-1584,-430,181,0,0
25.58058,-16588,-1528,-1840,-1552,-116,263,0,0
25.66353,-16392,-1460,-1932,-1584,-222,553,0,0
25.66353,-16144,-1364,-2372,-1568,13,126,0,0
25.69671,-16308,-1456,-2184,-1584,145,83,0,0
25.72989,-16424,-1496,-2256,-1568,151,134,0,0
25.72989,-16224,-1484,-2312,-1616,-34,188,0,0
25.76307,-16280,-1448,-2488,-1584,244,-536,0,0
25.79625,-16200,-1380,-2276,-1568,471,-1398,0,0
25.84602,-16292,-1624,-1592,-1600,-62,-535,0,0
25.8792,-16336,-1276,-2160,-1584,-192,77,0,0
25.91238,-16252,-1456,-2004,-1584,-8,158,0,0
25.91238,-16320,-1360,-2156,-1584,58,124,0,0
25.96216,-16140,-1416,-1936,-1600,-297,150,0,0
25.99534,-16244,-1128,-1980,-1584,129,-290,0,0
26.02852,-16396,-1440,-1896,-1568,-21,14,0,0
26.07829,-16260,-1452,-2068,-1584,-172,411,0,0
26.09488,-16428,-1380,-2244,-1568,-407,-579,0,0
26.14465,-16460,-1344,-1520,-1584,-732,-107,0,0
26.17784,-16348,-884,-1600,-1616,-390,685,0,0
26.21102,-16636,220,-1800,-1568,-301,1057,0,0
26.22761,-16596,-1096,-1404,-1600,-953,2488,0,0
26.26079,-16228,-676,-1964,-1584,-958,4336,0,0
26.29397,-16192,84,-2828,-1552,-723,4416,0,0
26.32715,-16236,-552,-3216,-1552,-671,2743,0,0
26.37692,-15916,-420,-2808,-1568,-425,2461,0,0
26.4101,-16528,436,-3872,-1600,118,1778,0,0
26.44328,-16420,-400,-2896,-1616,-437,2302,0,0
26.47647,-15904,-720,-3344,-1568,-1426,4202,0,0
26.49306,-15988,896,-3840,-1568,357,2721,0,0
26.52609,-16248,-136,-3668,-1568,1137,1874,0,0
26.5926,-15680,-576,-4288,-1600,-513,2776,0,0
26.62578,-15932,104,-4764,-1584,493,1189,0,0
26.62578,-15988,-684,-4512,-1568,-446,65,0,0
26.67556,-15848,-968,-4192,-1584,-416,363,0,0
26.70874,-16292,-564,-3976,-1600,-2540,2340,0,0
26.74192,-15960,920,-4704,-1552,-4346,2068,0,0
26.74192,-16760,2268,-4408,-1552,-6764,2687,0,0
26.7751,-16600,1232,-4804,-1600,-6431,5382,0,0
26.82487,-16340,4364,584,-1584,-1177,-409,0,0
26.85805,-16060,444,-4452,-1584,-5765,5414,0,0
26.89123,-14648,-1496,-10356,-1584,-4404,11521,0,0
26.94101,-14768,1040,-6824,-1552,-4109,9524,0,0
26.97419,-15128,-424,-7312,-1584,-3931,8434,0,0
27.00737,-14832,1720,-7784,-1568,-2140,4460,0,0
27.04055,-14340,180,-6100,-1568,-3562,4866,0,0
27.1235,-15244,1240,-8484,-1584,-3214,6024,0,0
27.1235,-15208,1512,-9808,-1584,-1368,-1673,0,0
27.15668,-13548,228,-7528,-1584,2891,-6279,0,0
27.18986,-13956,-300,-8332,-1568,3409,-6491,0,0
27.20645,-14760,-3288,-6004,-1552,-2869,-4005,0,0
27.22304,-15068,-584,-8084,-1552,-1453,-5384,0,0
27.27281,-14832,-708,-8548,-1584,7794,-10500,0,0
27.30599,-16160,-2148,-6924,-1552,448,-9896,0,0
27.30599,-16512,-1912,-3316,-1600,-3401,-4803,0,0
27.35577,-16952,-1020,-5508,-1584,-2762,-4929,0,0
27.38895,-15084,1532,-4668,-1600,-1121,-13678,0,0
27.42213,-15344,-164,-1000,-1568,-2588,-10905,0,0
27.45531,-15680,-3792,-1336,-1568,-6787,1035,0,0
27.48849,-16936,-672,-1960,-1600,-6003,6883,0,0
27.53826,-15232,1336,-7828,-1568,-10236,886,0,0
27.57144,-16148,-776,-3332,-1584,-9421,-1197,0,0
27.6544,-15372,488,-1628,-1600,-7663,331,0,0
27.6544,-16260,-956,-2540,-1568,-5458,-875,0,0
27.68757,-16020,-976,-2904,-1584,-13186,-1532,0,0
27.72075,-14388,1024,-2752,-1552,-4995,-3708,0,0
27.72075,-15776,-264,-4144,-1568,-1264,-4321,0,0
27.77053,-16156,-872,-2500,-1584,1494,4151,0,0
27.8203,-17268,-1164,-4696,-1568,6615,1694,0,0
27.85348,-16672,-2000,-3720,-1600,9300,5385,0,0
27.88667,-16820,-3296,-7828,-1584,2718,3537,0,0
27.91985,-16604,-1212,-2428,-1568,3655,6904,0,0
27.91985,-15740,-1460,-3660,-1552,5946,3712,0,0
27.96962,-15892,-1324,-5656,-1584,6325,1671,0,0
28.0028,-15296,-1312,-3948,-1536,4022,-3,0,0
28.08576,-15600,-1012,-4420,-1552,4256,553,0,0
28.10235,-15732,-980,-5988,-1568,3402,-2243,0,0
28.10235,-16368,-1476,-3868,-1568,2671,-6096,0,0
28.1853,-15936,84,-1276,-1568,4375,-647,0,0
28.21848,-16108,216,-3812,-1568,4776,1535,0,0
28.23507,-16172,-252,-3768,-1584,3599,-1478,0,0
28.26825,-16620,-2068,-1184,-1568,3268,1246,0,0
28.26825,-16748,-2392,-5088,-1568,1299,2864,0,0
28.33462,-15312,-1560,-4772,-1568,131,-1196,0,0
28.33462,-15528,-1340,-4280,-1552,192,-796,0,0
28.38439,-15876,-1212,-3884,-1552,202,338,0,0
28.40098,-16060,-980,-4124,-1552,71,941,0,0
28.41757,-15760,-864,-4548,-1584,218,327,0,0
28.45075,-16520,-192,-5412,-1552,-1742,785,0,0
28.48393,-16100,684,-4668,-1584,-4195,-2371,0,0
28.5337,-16028,24,-5144,-1568,-3481,-7843,0,0
28.60007,-16228,-2792,-488,-1552,-4746,-5864,0,0
28.60007,-16636,-1812,-236,-1568,-2432,2948,0,0
28.63325,-16064,-1956,-1472,-1600,74,4185,0,0
28.66643,-16096,-1308,-3648,-1552,942,1281,0,0
28.7162,-15360,-1928,-4508,-1568,-1008,917,0,0
28.7162,-15484,-1596,-3124,-1568,-1062,-381,0,0
28.74938,-16152,-1380,-3444,-1568,-366,-135,0,0
28.78257,-16524,-1308,-3672,-1552,-819,-179,0,0
28.86552,-16316,-1452,-3248,-1568,181,572,0,0
28.86552,-16140,-1516,-3660,-1568,-28,549,0,0
28.93188,-16048,-1604,-3172,-1552,-15,216,0,0
29.01484,-16056,-1444,-2952,-1552,1084,-182,0,0
29.04802,-16280,-1772,-3332,-1536,1082,-59,0,0
29.0812,-16032,-1696,-3632,-1552,-267,126,0,0
29.09779,-15932,-1608,-3404,-1552,-346,-158,0,0
29.13097,-16060,-1724,-3272,-1552,-152,-559,0,0
29.16415,-16120,-1812,-3236,-1552,-481,-282,0,0
29.16415,-16060,-1488,-3028,-1568,348,-386,0,0
29.19733,-16384,-1592,-3424,-1568,203,788,0,0
29.19733,-16176,-1628,-3124,-1600,-129,979,0,0
29.23051,-16232,-1384,-3224,-1584,264,271,0,0
29.26369,-16140,-1744,-3260,-1552,121,300,0,0
29.28029,-16008,-1716,-3336,-1520,-224,271,0,0
29.31347,-16064,-1704,-3280,-1536,216,-145,0,0
29.34665,-16232,-1660,-3184,-1536,-22,247,0,0
29.37983,-16008,-1564,-3332,-1536,-210,336,0,0
29.4296,-16012,-1668,-3136,-1568,-12,235,0,0
29.46278,-15996,-1648,-3204,-1600,155,206,0,0
29.54573,-16096,-1808,-3340,-1584,-36,73,0,0
29.54573,-16104,-1740,-2832,-1552,150,143,0,0
29.57891,-16288,-1772,-2888,-1568,286,969,0,0
29.61209,-16244,-1844,-3672,-1552,136,1211,0,0
29.61209,-15812,-1872,-3416,-1568,-45,636,0,0
29.64527,-15988,-1800,-3160,-1568,423,784,0,0
29.67846,-16268,-1972,-3732,-1520,331,1362,0,0
29.72823,-16016,-1924,-3768,-1504,-325,953,0,0
29.76141,-16240,-2016,-3416,-1568,-610,1569,0,0
29.79459,-16172,-1876,-3932,-1552,-898,2579,0,0
29.84436,-15768,-1780,-4144,-1536,-544,1778,0,0
29.84436,-15728,-2020,-4172,-1536,-39,567,0,0
29.87754,-15920,-1996,-4204,-1536,-184,149,0,0
29.91072,-15760,-1872,-4052,-1584,-4,-531,0,0
29.9439,-16072,-1964,-4024,-1552,22,-414,0,0
29.99368,-16052,-1952,-3820,-1568,-207,153,0,0
30.06004,-15796,-1828,-3932,-1552,-152,118,0,0
30.06004,-16116,-1972,-3820,-1536,-121,199,0,0
30.09322,-15864,-2004,-3868,-1552,-82,358,0,0
30.17617,-16008,-1996,-3956,-1552,-153,177,0,0
30.20935,-15996,-2048,-4208,-1552,-44,-123,0,0
30.20935,-15896,-1956,-3900,-1584,-137,100,0,0
30.24253,-15992,-2040,-3936,-1568,-167,116,0,0
30.25912,-16008,-2040,-3920,-1584,-64,-117,0,0
30.27571,-15920,-1912,-3768,-1536,-160,-135,0,0
30.32549,-16060,-2024,-4048,-1568,36,80,0,0
30.35867,-16024,-1916,-3844,-1536,-160,347,0,0
30.39185,-15952,-2012,-3936,-1568,-235,223,0,0
30.39185,-15924,-1876,-3736,-1568,-157,-101,0,0
30.4748,-15948,-1908,-3700,-1552,15,240,1,0
30.4748,-15852,-1856,-4068,-1568,-117,365,1,0
30.50798,-15936,-1984,-4008,-1536,-221,51,1,0
30.59093,-16044,-1936,-3676,-1552,-5,-41,1,0
30.59093,-15876,-1876,-4008,-1568,60,-122,1,0
30.62411,-15888,-1844,-3864,-1568,-117,-255,1,0
30.67389,-15992,-1944,-3708,-1552,-23,-275,1,0
30.69048,-16212,-2016,-3800,-1584,-20,197,1,0
30.69048,-16012,-1952,-3808,-1552,-165,412,1,0
30.74025,-15820,-1956,-3592,-1568,-72,156,1,0
30.77343,-15916,-2056,-3640,-1568,71,-93,1,0
30.83979,-15920,-2020,-3904,-1504,-109,101,1,0
30.85638,-16120,-1924,-3600,-1568,-199,154,1,0
30.88956,-16040,-2008,-3860,-1536,68,119,1,0
30.92274,-15864,-1932,-3652,-1520,108,-40,1,0
31.0057,-15912,-1876,-3684,-1552,25,13,1,0
31.0057,-16052,-1952,-3700,-1536,49,25,1,0
31.03888,-16112,-1932,-3872,-1584,117,48,1,0
31.07206,-16068,-1916,-3784,-1536,-84,115,1,0
31.08865,-15924,-1840,-3772,-1536,-36,73,1,0
31.10524,-15828,-1972,-3776,-1552,27,161,1,0
31.13842,-16100,-1928,-3624,-1536,45,110,1,0
31.18819,-15908,-1976,-3744,-1536,-93,133,1,0
31.22138,-16008,-2004,-3904,-1536,-72,28,1,0
31.22138,-16060,-1980,-3832,-1520,-138,-13,1,0
31.27115,-16116,-1892,-3740,-1584,-223,184,1,0
31.30433,-15940,-2032,-3656,-1568,-154,234,1,0
31.33751,-15872,-1968,-3760,-1552,-114,507,1,0
31.37069,-15928,-2000,-3924,-1536,-430,20,1,0
31.40387,-15968,-1984,-3720,-1520,-721,-298,1,0
31.45364,-15992,-1844,-3336,-1552,-158,387,1,0
31.52,-16108,-1996,-3944,-1552,-56,617,1,0
31.53659,-15872,-2040,-3932,-1552,-298,866,1,0
31.55318,-16040,-1932,-3824,-1568,-338,605,1,0
31.60295,-15696,-2196,-3892,-1552,-247,354,1,0
31.60295,-15976,-1860,-3780,-1552,-380,554,1,0
31.63614,-15968,-1996,-3952,-1520,-560,171,1,0
31.66932,-15872,-2040,-4016,-1520,-426,176,1,0
31.7025,-15976,-1920,-3852,-1568,-250,548,1,0
31.75227,-15984,-2008,-4076,-1520,-322,279,1,0
31.78545,-15804,-2060,-3880,-1584,-333,237,1,0
31.78545,-15940,-1784,-3652,-1536,-79,235,1,0
31.83522,-15840,-2120,-3904,-1552,171,162,1,0
31.85181,-15904,-1896,-4048,-1520,-24,-162,1,0
31.90158,-16008,-1952,-3740,-1552,-75,-849,1,0
31.93477,-15996,-2048,-3676,-1520,-343,-318,1,0
31.96795,-16084,-1628,-3816,-1536,-221,166,1,0
32.01772,-16184,-1832,-3844,-1552,-301,183,1,0
32.0509,-16060,-1920,-3984,-1568,-521,388,1,0
32.08408,-15860,-1740,-3820,-1520,-368,142,1,0
32.08408,-16036,-1952,-3864,-1552,-421,454,1,0
32.15045,-15888,-1984,-3860,-1568,-360,211,1,0
32.20022,-15852,-1764,-3936,-1536,-88,-295,1,0
32.20022,-16028,-2084,-3808,-1536,-277,-273,1,0
32.24999,-15840,-1884,-3772,-1552,-418,1,1,0
32.26659,-15872,-1744,-3544,-1552,-293,-269,1,0
32.31636,-15960,-2028,-3760,-1536,-419,77,1,0
32.34954,-15944,-1924,-3760,-1568,-406,-240,1,0
32.38272,-15932,-1832,-3780,-1520,-376,-1613,1,0
32.46566,-16144,-1908,-2928,-1536,-94,-1317,1,0
32.48225,-16276,-2096,-3296,-1536,-336,179,1,0
32.49884,-15972,-1804,-3716,-1568,-304,-306,1,0
32.53202,-15944,-1968,-3424,-1536,-367,-786,1,0
32.53202,-16048,-2040,-3104,-1520,-171,72,1,0
32.5652,-16184,-1948,-3548,-1536,-259,-48,1,0
32.64816,-16016,-1912,-3472,-1520,-188,-12,1,0
32.71452,-16080,-1940,-3104,-1536,-275,56,1,0
32.76429,-16076,-1896,-3328,-1520,-273,120,1,0
32.79747,-16088,-1980,-3348,-1520,-389,46,1,0
32.83065,-15992,-2032,-3268,-1552,-387,69,1,0
32.88042,-16164,-1852,-3504,-1552,-447,-392,1,0
32.9136,-15976,-1996,-3456,-1536,-401,-986,1,0
33.02974,-15780,-1904,-3416,-1552,-186,-1756,1,0
33.06292,-16184,-2052,-2864,-1536,-14,-2761,1,0
33.0961,-16444,-2644,-2212,-1536,-470,-429,1,0
33.12929,-16240,-1900,-3116,-1520,-553,459,1,0
33.17906,-16100,-1916,-3168,-1552,-360,-310,1,0
33.21223,-16092,-2136,-2688,-1504,-232,-125,1,0
33.2786,-16252,-1832,-2756,-1536,-41,-16,1,0
33.32837,-16140,-2264,-2764,-1472,-33,271,1,0
33.36155,-16068,-2180,-2708,-1520,-66,335,1,0
33.39473,-16032,-2160,-2960,-1568,10,400,1,0
33.47768,-16092,-2348,-3232,-1520,-365,112,1,0
33.51086,-16148,-2024,-2876,-1552,-439,-481,1,0
33.54392,-16196,-1904,-2188,-1536,-173,-543,1,0
33.59382,-16156,-2044,-2356,-1536,314,-413,1,0
33.627,-16108,-2536,-3004,-1552,0,174,1,0
33.66018,-15944,-2248,-2968,-1552,-143,-373,1,0
33.74313,-15936,-2196,-2848,-1536,-15,-1457,1,0
33.77631,-16352,-2228,-2028,-1520,-22,-1090,1,0
33.80949,-16364,-2488,-2152,-1536,-268,504,1,0
33.85927,-16188,-1744,-2580,-1520,-253,488,1,0
33.92563,-16276,-2312,-2452,-1568,-434,552,1,0
33.95881,-16116,-1952,-2748,-1552,-282,844,1,0
34.02517,-16056,-2028,-2732,-1488,-11,-111,1,0
34.07494,-16244,-2268,-2848,-1520,-44,-243,1,0
34.10813,-16136,-2092,-2368,-1536,-142,-340,1,0
34.1579,-16080,-2120,-2448,-1552,18,-166,1,0
34.19108,-16176,-2332,-2448,-1552,-89,-160,1,0
34.22409,-16188,-2304,-2336,-1520,-238,174,1,0
34.29062,-16048,-2000,-2516,-1552,-86,180,1,0
34.3404,-16124,-2292,-2756,-1536,-160,-141,1,0
34.37358,-16232,-2128,-2520,-1536,-227,-105,1,0
34.45654,-16248,-1928,-2480,-1536,-194,509,1,0
34.48971,-16052,-2176,-2500,-1520,-82,184,1,0
34.55608,-16120,-2124,-2520,-1504,-61,-226,1,0
34.58926,-16196,-2168,-2280,-1552,-85,-47,1,0
34.63938,-16212,-2196,-2388,-1520,-70,39,1,0
34.67256,-16216,-2260,-2456,-1536,-240,-157,1,0
34.7058,-16060,-2176,-2172,-1520,-118,-186,1,0
34.7888,-16192,-2052,-2472,-1520,-108,-53,1,0
34.822,-16228,-2180,-2156,-1536,-43,-78,1,0
34.8718,-16120,-2292,-2460,-1536,-154,224,1,0
34.905,-16132,-1976,-2544,-1520,-15,146,1,0
34.9382,-16064,-2060,-2304,-1520,15,-311,1,0
35.0046,-16296,-2296,-2272,-1520,-12,14,1,0
35.08759,-16128,-2124,-2324,-1552,4,84,1,0
35.1208,-16188,-2156,-2196,-1552,-136,262,1,0
35.17059,-16044,-2120,-2392,-1552,-155,212,1,0
35.23699,-16200,-2104,-2216,-1536,-118,-62,1,0
35.27019,-16260,-2192,-2208,-1536,1,-14,1,0
35.30339,-16072,-2012,-2564,-1520,23,187,1,0
35.38639,-16196,-2372,-2320,-1536,-83,-230,1,0
35.41959,-16140,-2136,-1924,-1520,-181,-319,1,0
35.46939,-16224,-2312,-2040,-1520,-295,790,1,0
35.50259,-16220,-2116,-2712,-1536,-111,731,1,0
35.56898,-16012,-2184,-2484,-1520,-5,-500,1,0
35.61879,-16148,-2160,-2280,-1520,-11,114,1,0
35.65199,-16144,-2224,-2288,-1520,19,10,1,0
35.68518,-16340,-2132,-2064,-1504,-60,-14,1,0
35.71838,-16256,-2040,-1920,-1536,-6,-176,1,0
35.76818,-16164,-2324,-2180,-1504,-54,366,1,0
35.83458,-16204,-2024,-2412,-1568,-154,47,1,0
35.91758,-16396,-2052,-1884,-1520,-118,-266,1,0
35.95026,-15984,-1920,-2520,-1520,-121,473,1,0
36.03321,-16256,-2504,-2244,-1488,-54,209,1,0
36.0498,-16172,-2272,-2204,-1568,-81,203,1,0
36.09958,-16144,-2240,-2348,-1520,-81,152,1,0
36.13276,-16200,-2244,-2204,-1520,-135,-202,1,0
36.21571,-16380,-2116,-2112,-1504,-127,300,1,0
36.24889,-16028,-2316,-2680,-1504,70,508,1,0
36.28207,-16164,-2320,-2484,-1488,-179,-289,1,0
36.33185,-16208,-2076,-1876,-1504,-100,-48,1,0
36.39821,-16132,-2276,-2364,-1488,12,449,1,0
36.4314,-16112,-2092,-2404,-1520,30,16,1,0
36.48117,-16312,-2392,-2312,-1488,53,-290,1,0
36.51435,-16112,-2360,-1872,-1520,51,91,1,0
36.54753,-16172,-2168,-2496,-1504,14,99,1,0
36.58072,-16332,-2300,-1908,-1520,-195,-384,1,0
36.63049,-16156,-2160,-1972,-1520,-23,102,1,0
36.69685,-16132,-2420,-2368,-1536,-34,198,1,0
36.73004,-16164,-2284,-1948,-1520,-55,84,1,0
36.77981,-16236,-2344,-2200,-1488,-74,48,1,0
36.84617,-16192,-2276,-1904,-1520,3,58,1,0
36.87935,-16212,-2216,-2212,-1536,78,-262,1,0
36.96231,-16280,-2184,-1504,-1520,235,-370,1,0
36.99548,-16252,-2268,-2252,-1520,49,425,1,0
37.02867,-16252,-2432,-2048,-1520,-167,11,1,0
37.07845,-16104,-2216,-1744,-1536,-138,150,1,0
37.14481,-16348,-2172,-2228,-1504,-91,141,1,0
37.17799,-16408,-2168,-2008,-1520,-91,205,1,0
37.22777,-16208,-2128,-2152,-1504,111,104,1,0
37.26095,-16260,-2208,-2020,-1536,14,56,1,0
37.29413,-16244,-2348,-2260,-1520,78,495,1,0
37.37709,-16200,-2112,-1932,-1504,55,-196,1,0
37.41027,-16332,-2316,-1932,-1520,-66,0,1,0
37.47663,-16280,-2372,-2260,-1488,-103,457,1,0
37.52641,-16080,-2040,-2044,-1536,-100,23,1,0
37.55959,-16216,-2248,-2020,-1488,-99,52,1,0
37.60936,-16160,-2228,-2216,-1536,-75,412,1,0
37.64255,-16100,-2312,-1944,-1488,-81,185,1,0
37.70891,-16264,-2196,-1932,-1488,-136,142,1,0
37.7421,-16264,-2156,-2004,-1504,-113,136,1,0
37.82505,-16176,-2076,-1988,-1536,-105,52,1,0
37.85823,-16028,-2184,-1884,-1488,62,175,1,0
37.90801,-16220,-2240,-1772,-1520,-64,-108,1,0
37.94119,-16224,-2344,-2312,-1504,-95,411,1,0
37.97437,-16256,-2140,-1972,-1488,-6,296,1,0
38.00755,-16192,-2360,-1956,-1552,-98,156,1,0
38.09051,-16196,-2136,-1948,-1520,-96,139,1,0
38.12369,-16208,-2268,-1848,-1520,-72,0,1,0
38.15687,-16140,-2348,-2036,-1504,-42,71,1,0
38.20664,-16164,-2164,-2200,-1520,-131,-63,1,0
38.23983,-16320,-2248,-1692,-1520,-316,-408,1,0
38.33937,-16260,-2084,-2128,-1504,-202,501,1,0
38.38915,-16132,-2280,-1984,-1552,-15,110,1,0
38.42233,-16160,-2288,-1740,-1504,65,86,1,0
38.45551,-16220,-2248,-2132,-1488,-70,380,1,0
38.50529,-16140,-2208,-1672,-1504,-36,-217,1,0
38.53847,-16268,-2236,-1800,-1520,-13,399,1,0
38.57165,-16160,-2252,-2136,-1536,-32,247,1,0
38.63802,-16188,-2272,-1624,-1504,30,-110,1,0
38.68779,-16236,-2204,-2080,-1488,29,233,1,0
38.73756,-16184,-2224,-2000,-1488,12,-110,1,0
38.75415,-16284,-2092,-1672,-1472,-179,-108,1,0
38.87029,-16536,-2144,-2044,-1504,-202,289,1,0
38.90348,-16232,-2028,-1608,-1472,-88,-78,1,0
38.95303,-16068,-2060,-1944,-1488,-46,198,1,0
38.98643,-16196,-2292,-1828,-1472,-101,-150,1,0
39.01961,-16176,-2168,-1528,-1520,-18,351,1,0
39.06939,-16232,-2132,-1964,-1488,-117,-290,1,0
39.13575,-16216,-1940,-1764,-1488,-151,-41,1,0
39.16893,-16104,-2256,-1816,-1520,-3,553,1,0
39.25189,-16224,-2076,-2064,-1536,-83,-122,1,0
39.28508,-16288,-2204,-1900,-1504,-47,287,1,0
39.31826,-16144,-2260,-1892,-1504,-128,310,1,0
39.36803,-16236,-2192,-1560,-1472,-260,-235,1,0
39.43439,-16308,-2232,-1704,-1520,-150,401,1,0
39.46758,-16116,-2124,-1892,-1488,-48,229,1,0
39.51735,-16168,-2184,-1896,-1488,41,-39,1,0
39.55053,-16164,-2140,-1468,-1472,-58,90,1,0
39.58371,-16304,-2184,-1920,-1504,-56,225,1,0
39.61689,-16232,-2220,-1684,-1504,-62,305,1,0
39.66667,-16316,-2136,-1452,-1472,-144,206,1,0
39.76622,-16276,-2136,-1944,-1504,-59,162,1,0
39.7994,-16312,-2128,-1948,-1504,-108,-77,1,0
39.84917,-16164,-2116,-1532,-1504,-62,273,1,0
39.88235,-16184,-2140,-1872,-1488,16,226,1,0
39.91553,-16264,-2148,-1308,-1456,-16,149,1,0
39.96531,-16284,-2168,-1932,-1472,-57,306,1,0
39.99849,-16304,-2276,-1480,-1488,-43,95,1,0
40.06485,-16240,-2216,-1704,-1472,-70,-74,1,0
40.11463,-16288,-2060,-1720,-1488,-87,189,1,0
40.14781,-16392,-2276,-1988,-1472,-107,348,1,0
40.181,-16220,-2120,-1776,-1504,-117,110,1,0
40.23077,-16272,-2144,-1892,-1472,-63,81,1,0
40.29713,-16196,-2176,-1780,-1520,-108,185,1,0
40.38008,-16104,-1940,-1672,-1488,-105,-150,1,0
40.41326,-16240,-2336,-1604,-1488,-136,207,1,0
40.44645,-16316,-2128,-2160,-1504,-85,48,1,0
40.47943,-16416,-2160,-1528,-1472,-18,-229,1,0
40.5294,-16172,-2092,-1312,-1472,-138,58,1,0
40.56258,-16256,-2124,-1648,-1456,-101,-393,1,0
40.62895,-16284,-2156,-1652,-1488,-104,298,1,0
40.66213,-16164,-2232,-1804,-1456,-79,363,1,0
40.74509,-16264,-2100,-1624,-1472,-99,-236,1,0
40.79486,-16340,-2220,-1892,-1472,-60,396,1,0
40.81145,-16152,-2228,-1472,-1488,-18,77,1,0
40.86123,-16332,-2212,-1876,-1520,-145,198,1,0
40.89441,-16308,-2184,-1660,-1520,-84,9,1,0
40.94418,-16256,-2168,-1400,-1488,-31,140,1,0
40.97736,-16204,-2084,-1760,-1520,-100,211,0,0
41.04373,-16208,-2216,-1680,-1440,-72,-149,0,0
41.07691,-16356,-2164,-1512,-1456,-132,117,0,0
41.12668,-16424,-2048,-1620,-1456,-275,70,0,0
41.15987,-16252,-2248,-1432,-1488,-53,-27,0,0
41.24282,-16420,-2260,-1516,-1456,88,94,0,0
41.30919,-16236,-2108,-1736,-1472,-181,191,0,0
41.34219,-16156,-2236,-1668,-1488,-134,-37,0,0
41.39214,-16196,-2204,-1556,-1472,-168,269,0,0
41.40873,-16260,-2180,-1424,-1456,-54,197,0,0
41.45851,-16192,-2064,-1588,-1488,9,215,0,0
41.50829,-16228,-2188,-1524,-1456,-99,-12,0,0
41.57459,-16332,-2124,-1508,-1488,-149,-168,0,0
41.60782,-16204,-2248,-1760,-1456,-213,557,0,0
41.64101,-16188,-2044,-1580,-1456,-36,63,0,0
41.69115,-16316,-2136,-1488,-1504,-16,52,0,0
41.75751,-16276,-2212,-1672,-1456,7,191,0,0
41.80724,-16236,-2216,-1480,-1488,-61,90,0,0
41.87358,-16200,-2136,-1560,-1488,-159,25,0,0
41.95652,-16328,-2076,-1288,-1488,-140,-13,0,0
41.97311,-16156,-2104,-1720,-1504,-32,343,0,0
42.02287,-16240,-2140,-1556,-1440,-160,-297,0,0
42.05604,-16356,-2212,-1740,-1504,-79,104,0,0
42.08922,-16088,-2072,-1908,-1472,-117,44,0,0
42.17216,-16420,-2256,-1552,-1488,-209,-173,0,0
42.25508,-16212,-2096,-1620,-1488,-79,409,0,0
42.27168,-16172,-2256,-1532,-1456,-61,-41,0,0
42.32144,-16236,-2192,-1456,-1456,-55,-147,0,0
42.35462,-16492,-2224,-1592,-1504,-97,172,0,0
42.40438,-16284,-2264,-1532,-1488,-45,210,0,0
42.47073,-16292,-2116,-1536,-1488,-67,74,0,0
42.5039,-16324,-2120,-1396,-1472,-62,71,0,0
42.55366,-16200,-2208,-1368,-1472,-70,341,0,0
42.5872,-16332,-2220,-1620,-1440,-71,72,0,0
42.62038,-16280,-2232,-1240,-1456,-45,420,0,0
42.65353,-16332,-2232,-1624,-1472,-111,69,0,0
42.70327,-16424,-2228,-1572,-1424,-93,158,0,0
42.76959,-16244,-2168,-1440,-1520,-153,256,0,0
42.81935,-16272,-2192,-1588,-1472,-55,250,0,0
42.8525,-16232,-2112,-1552,-1472,-106,26,0,0
42.88566,-16352,-2236,-1320,-1472,-27,135,0,0
42.91883,-16124,-2276,-1504,-1456,50,335,0,0
42.96857,-16276,-2336,-1672,-1488,-43,230,0,0
43.0349,-16276,-2144,-1312,-1456,-54,260,0,0
43.06805,-16244,-2188,-1672,-1472,-77,175,0,0
43.11781,-16352,-2156,-1408,-1456,-65,6,0,0
43.15097,-16388,-2076,-1416,-1488,-17,137,0,0
43.23424,-16256,-2216,-1804,-1472,8,390,0,0
43.26741,-16220,-2168,-1508,-1456,-32,-98,0,0
43.33385,-16236,-2160,-1360,-1472,18,181,0,0
43.36705,-16268,-2192,-1576,-1456,40,152,0,0
43.41682,-16384,-2168,-1392,-1488,-92,-2,0,0
43.43341,-16204,-2064,-1520,-1456,-127,747,0,0
43.4832,-16124,-2144,-1436,-1440,73,258,0,0
43.5164,-16308,-2104,-1672,-1472,161,254,0,0
43.59938,-16320,-2272,-1864,-1472,174,82,0,0
43.63257,-16356,-2116,-1496,-1472,111,120,0,0
43.71555,-16224,-2196,-1784,-1456,58,129,0,0
43.74873,-16244,-2084,-1220,-1456,67,5,0,0
43.78193,-16212,-1904,-1584,-1472,148,82,0,0
43.86491,-16200,-2184,-1568,-1472,23,152,0,0
43.8981,-16072,-2200,-1540,-1472,100,253,0,0
43.93129,-16256,-2100,-1520,-1488,71,-38,0,0
43.98107,-16224,-2136,-1444,-1472,130,237,0,0
44.01426,-16344,-2084,-1580,-1440,74,308,0,0
44.04746,-16416,-2084,-1568,-1456,106,9,0,0
44.16361,-16304,-2120,-1476,-1456,154,129,0,0
44.19682,-16324,-2156,-1792,-1472,192,-69,0,0
44.23001,-16236,-2036,-1144,-1472,426,-48,0,0
44.2798,-16200,-2452,-1708,-1488,25,667,0,0
44.31298,-16168,-2036,-1620,-1472,234,248,0,0
44.34618,-16420,-2272,-1648,-1456,213,186,0,0
44.37936,-16208,-2076,-1304,-1456,92,282,0,0
44.46235,-16208,-2296,-1660,-1456,283,312,0,0
44.49553,-16228,-2292,-1532,-1456,280,-71,0,0
44.52872,-16088,-2216,-1520,-1440,246,337,0,0
44.57851,-16236,-2456,-1436,-1488,325,-15,0,0
44.61169,-16220,-2320,-1728,-1488,250,317,0,0
44.69467,-16248,-2148,-1476,-1456,127,102,0,0
44.79424,-16088,-2256,-1436,-1456,257,216,0,0
44.84403,-16184,-2496,-1688,-1488,250,43,0,0
44.87721,-16332,-2492,-1500,-1472,177,96,0,0
44.91041,-16292,-2392,-1496,-1472,144,183,0,0
44.96019,-16316,-2496,-1552,-1456,46,243,0,0
44.99338,-16304,-2316,-1352,-1488,90,36,0,0
45.09295,-16324,-2352,-1500,-1472,166,284,0,0
45.12616,-16404,-2356,-1560,-1504,179,83,0,0
45.17593,-16180,-2360,-1432,-1440,60,536,0,0
45.20912,-16224,-2368,-1668,-1440,-29,214,0,0
45.2589,-16296,-2332,-1420,-1472,135,144,0,0
45.2921,-16280,-2368,-1304,-1472,276,517,0,0
45.35848,-16192,-2460,-1524,-1472,452,387,0,0
45.39167,-16132,-2440,-1616,-1472,203,482,0,0
45.44146,-16320,-2360,-1584,-1456,62,462,0,0
45.47465,-16124,-2312,-1744,-1456,-44,380,0,0
45.52444,-16236,-2424,-1568,-1456,77,344,0,0
45.624,-16152,-2408,-1868,-1440,46,381,0,0
45.65719,-16224,-2352,-1688,-1456,-3,574,0,0
45.69037,-16212,-2780,-2096,-1488,-34,458,0,0
45.74017,-16208,-2492,-1608,-1424,-8,96,0,0
45.80655,-16256,-2524,-1752,-1424,16,385,0,0
45.83974,-16256,-2388,-1668,-1456,217,55,0,0
45.92272,-16096,-2596,-1692,-1440,179,268,0,0
45.95591,-16232,-2568,-1820,-1488,49,299,0,0
46.0057,-16156,-2512,-1932,-1456,65,161,0,0
46.0389,-16256,-2608,-2052,-1456,-378,198,0,0
46.07208,-16092,-2468,-1496,-1472,-243,-264,0,0
46.1548,-16192,-2508,-1660,-1424,-28,116,0,0
46.22144,-16112,-2368,-1724,-1408,49,16,0,0
46.25463,-16236,-2464,-1468,-1440,240,137,0,0
46.30425,-16240,-2452,-1840,-1456,227,340,0,0
46.33755,-16216,-2552,-1800,-1472,146,-46,0,0
46.37079,-16200,-2628,-1896,-1440,-30,132,0,0
46.42057,-16136,-2512,-1688,-1456,-73,219,0,0
46.48695,-16208,-2512,-1752,-1456,-53,66,0,0
46.55334,-16208,-2476,-1704,-1440,-40,6,0,0
46.60313,-16200,-2528,-1656,-1456,-43,162,0,0
46.63632,-16268,-2544,-1880,-1440,-42,166,0,0
46.66951,-16056,-2476,-1528,-1456,39,-114,0,0
46.7193,-16164,-2372,-1640,-1440,-46,-21,0,0
46.75249,-16204,-2504,-1460,-1440,-84,58,0,0
46.81887,-16128,-2492,-1708,-1440,-105,146,0,0
46.85206,-16148,-2480,-1380,-1456,-145,-164,0,0
46.90186,-16236,-2544,-1348,-1456,-52,327,0,0
46.93504,-16224,-2640,-1536,-1440,5,224,0,0
46.98482,-16148,-2488,-1732,-1440,-61,115,0,0
47.0844,-16192,-2504,-1532,-1488,-150,101,0,0
47.1176,-16196,-2428,-1512,-1456,-10,43,0,0
47.20056,-16208,-2524,-1660,-1456,-72,247,0,0
47.23376,-16172,-2512,-1712,-1440,-120,159,0,0
47.28354,-16252,-2596,-1444,-1440,-23,270,0,0
47.30013,-16252,-2584,-1692,-1408,1,213,0,0
47.34992,-16200,-2404,-1696,-1472,-26,120,0,0
47.4163,-16092,-2596,-1540,-1472,-56,203,0,0
47.46608,-16040,-2508,-1600,-1440,-68,108,0,0
47.49928,-16200,-2412,-1520,-1440,-101,84,0,0
47.54906,-16136,-2520,-1608,-1456,-22,-105,0,0
47.61544,-16200,-2456,-1340,-1408,35,-228,0,0
47.68183,-16344,-2568,-1616,-1472,-29,246,0,0
47.71502,-16220,-2384,-1536,-1440,-95,87,0,0
47.7648,-16228,-2432,-1296,-1424,-40,141,0,0
47.79799,-16212,-2440,-1416,-1408,-28,128,0,0
47.84779,-16180,-2404,-1560,-1408,-105,32,0,0
47.88097,-16240,-2428,-1404,-1440,-52,181,0,0
47.94735,-16172,-2600,-1516,-1456,-197,146,0,0
48.01372,-16208,-2340,-1468,-1456,-156,212,0,0
48.06352,-16144,-2512,-1640,-1456,-131,196,0,0
48.0967,-16292,-2444,-1388,-1456,-32,96,0,0
48.1299,-16184,-2520,-1616,-1440,-50,278,0,0
48.17968,-16196,-2368,-1500,-1424,41,22,0,0
48.21287,-16240,-2452,-1496,-1472,120,286,0,0
48.27925,-16132,-2368,-1560,-1424,-30,179,0,0
48.32904,-16136,-2572,-1456,-1424,-154,160,0,0
48.36223,-16232,-2412,-1616,-1408,-74,108,0,0
48.39542,-16104,-2420,-1388,-1456,-5,-24,0,0
48.4784,-16316,-2552,-1596,-1440,-41,228,0,0
48.54478,-16224,-2444,-1588,-1424,-9,236,0,0
48.59456,-16156,-2512,-1400,-1440,-19,43,0,0
48.62776,-16332,-2504,-1460,-1440,-184,58,0,0
48.66095,-16280,-2496,-1492,-1440,-69,265,0,0
48.71073,-16252,-2544,-1592,-1456,-107,109,0,0
48.77711,-16256,-2504,-1476,-1424,-35,195,0,0
48.79371,-16212,-2544,-1496,-1440,-17,239,0,0
48.84351,-16212,-2544,-1428,-1440,-66,181,0,0
48.89329,-16124,-2612,-1416,-1440,-122,164,0,0
48.92648,-16348,-2500,-1656,-1408,-111,90,0,0
48.95966,-16168,-2556,-1488,-1424,-92,146,0,0
49.04265,-16192,-2556,-1568,-1440,-46,138,0,0
49.07585,-16132,-2488,-1396,-1440,-29,125,0,0
49.19202,-16152,-2572,-1424,-1424,-17,311,0,0
49.2252,-16212,-2552,-1500,-1456,-54,37,0,0
49.25839,-16232,-2588,-1392,-1440,-80,247,0,0
49.29158,-16208,-2476,-1732,-1424,-70,96,0,0
49.34136,-16156,-2564,-1716,-1424,-59,73,0,0
49.37456,-16128,-2624,-1452,-1392,14,384,0,0
49.49073,-16184,-2580,-1532,-1456,-73,72,0,0
49.52392,-16256,-2588,-1356,-1472,-55,191,0,0
49.64008,-16280,-2692,-1536,-1440,-97,87,0,0
49.67328,-16068,-2576,-1536,-1456,-68,235,0,0
49.70647,-16228,-2616,-1444,-1456,-12,170,0,0
49.73967,-16116,-2524,-1776,-1440,-79,127,0,0
49.78945,-16156,-2644,-1392,-1440,-88,-9,0,0
49.82264,-16116,-2320,-988,-1424,391,146,0,0
49.90562,-16276,-2832,-1700,-1440,333,135,0,0
49.93882,-16212,-2440,-1568,-1408,238,106,0,0
50.00519,-16172,-2804,-1544,-1456,40,299,0,0
50.05499,-16236,-2648,-1524,-1456,-610,-44,0,0
50.12136,-16224,-2540,-1500,-1424,-71,107,0,0
50.15455,-16060,-2448,-1264,-1424,179,-159,0,0
50.23753,-16364,-2668,-1584,-1456,260,188,0,0
50.27071,-16076,-2664,-1632,-1408,136,231,0,0
50.32051,-16288,-2644,-1312,-1424,-99,-256,0,0
50.38689,-16172,-2536,-1084,-1456,-33,124,0,0
50.42009,-16084,-2504,-1428,-1408,-177,-122,0,0
50.45327,-16324,-2580,-1224,-1440,28,147,0,0
50.53624,-16188,-2576,-1184,-1424,37,222,0,0
50.56943,-16108,-2624,-1764,-1472,-58,-44,0,0
50.60263,-16264,-2684,-1144,-1456,-33,-110,0,0
50.6524,-16300,-2504,-1260,-1440,-38,233,0,0
50.68561,-16116,-2488,-1288,-1440,-154,-23,0,0
50.71881,-16164,-2588,-1356,-1408,-63,131,0,0
50.80177,-16160,-2608,-1376,-1424,247,428,0,0
50.83496,-16440,-2632,-1388,-1440,-51,-10,0,0
50.86816,-16560,-2792,-1088,-1424,-321,116,0,0
50.95113,-16196,-2592,-1408,-1408,1,275,0,0
51.01751,-16160,-2608,-1136,-1456,-28,227,0,0
51.05069,-16264,-2464,-1236,-1440,-48,263,0,0
51.10048,-16148,-2504,-1224,-1408,35,242,0,0
51.13367,-16308,-2592,-1228,-1456,-16,45,0,0
51.16687,-16268,-2452,-1252,-1408,-62,193,0,0
51.21665,-16252,-2532,-1472,-1408,-5,139,0,0
51.28304,-16112,-2580,-1336,-1424,-106,243,0,0
51.31623,-16204,-2556,-1388,-1424,1,88,0,0
51.34942,-16184,-2616,-1416,-1408,-115,187,0,0
51.39921,-16140,-2564,-1288,-1456,-83,184,0,0
51.48218,-16216,-2632,-1508,-1424,-46,178,0,0
51.49877,-16216,-2696,-1368,-1408,-84,38,0,0
51.59836,-16164,-2536,-1268,-1424,-10,193,0,0
51.66474,-16104,-2416,-1496,-1424,-58,-11,0,0
51.69793,-16140,-2532,-812,-1424,99,33,0,0
51.73112,-16324,-2688,-1240,-1408,-48,191,0,0
51.78091,-16300,-2724,-968,-1424,-86,218,0,0
51.81411,-16040,-2544,-1808,-1440,-65,376,0,0
51.88049,-16180,-2560,-1184,-1392,-48,-253,0,0
51.93027,-16340,-2540,-1100,-1424,-75,24,0,0
51.99665,-16128,-2668,-1520,-1424,-74,432,0,0
52.02986,-16168,-2580,-1368,-1376,-24,-61,0,0
52.07964,-16176,-2592,-940,-1424,-50,281,0,0
52.14602,-16244,-2584,-1352,-1424,-94,139,0,0
52.17922,-16104,-2516,-1364,-1440,-102,112,0,0
52.22901,-16280,-2568,-1012,-1456,-20,29,0,0
52.2622,-16188,-2472,-1248,-1440,-76,366,0,0
52.29538,-16284,-2576,-1160,-1408,19,63,0,0
52.32857,-16248,-2544,-1312,-1424,-48,304,0,0
52.44475,-16216,-2632,-1292,-1424,-177,-92,0,0
52.52773,-16232,-2552,-1000,-1408,-70,210,0,0
52.56092,-16088,-2596,-1172,-1440,-66,195,0,0
52.5941,-16216,-2564,-1256,-1408,-128,72,0,0
52.64389,-16352,-2584,-1116,-1424,-94,-9,0,0
52.67709,-15996,-2508,-1212,-1408,-135,294,0,0
52.74293,-16248,-2464,-1040,-1424,-106,-147,0,0
52.77612,-16212,-2532,-1212,-1424,30,332,0,0
52.82586,-16212,-2584,-1364,-1408,-102,151,1,0
52.85903,-16200,-2556,-1124,-1440,-73,198,1,0
52.94197,-16260,-2580,-1260,-1392,-117,150,1,0
52.97515,-16192,-2420,-980,-1392,-52,-21,1,0
53.04151,-16168,-2552,-1108,-1456,16,446,1,0
53.07468,-16144,-2464,-1440,-1424,-71,111,1,0
53.12445,-16256,-2568,-1120,-1424,-106,173,1,0
53.15763,-16240,-2412,-1248,-1408,-36,426,1,0
53.1908,-16120,-2540,-1368,-1408,-2,-81,1,0
53.24058,-16220,-2568,-1212,-1424,-53,212,1,0
53.30692,-16204,-2480,-1368,-1424,-112,195,1,0
53.35669,-16304,-2516,-900,-1424,-38,266,1,0
53.47282,-16156,-2508,-1368,-1392,84,199,1,0
53.48941,-16208,-2592,-920,-1424,-45,110,1,0
53.53918,-16184,-2636,-1160,-1424,-70,118,1,0
53.57235,-16224,-2624,-1476,-1392,-137,210,1,0
53.60554,-16236,-2520,-1212,-1424,-133,5,1,0
53.6553,-16228,-2712,-1120,-1376,-53,334,1,0
53.72165,-16044,-2628,-1368,-1424,-63,155,1,0
53.75475,-16268,-2628,-1240,-1424,-43,129,1,0
53.78801,-16176,-2572,-1380,-1408,-62,125,1,0
53.87094,-16216,-2568,-1116,-1360,-147,-33,1,0
53.92073,-16188,-2612,-1272,-1408,-178,150,1,0
53.9539,-16240,-2536,-1192,-1424,-145,106,1,0
54.02026,-16192,-2560,-1076,-1376,-60,91,1,0
54.05343,-16240,-2460,-1280,-1392,-36,130,1,0
54.1032,-16248,-2540,-1320,-1408,-52,194,1,0
54.13638,-16272,-2464,-1080,-1408,-124,-158,1,0
54.16955,-16148,-2536,-1488,-1424,-104,251,1,0
54.21932,-16244,-2584,-1184,-1408,-244,-113,1,0
54.28568,-16244,-2552,-972,-1360,-84,100,1,0
54.31886,-16132,-2512,-1232,-1392,-76,79,1,0
54.4018,-16200,-2692,-984,-1424,-35,94,1,0
54.43498,-16320,-2592,-1452,-1392,-494,62,1,0
54.46815,-16016,-2384,-928,-1376,-307,561,1,0
54.51792,-16156,-2908,-1780,-1376,-396,526,1,0
54.58427,-16320,-2456,-1260,-1424,-785,-623,1,0
54.61745,-16144,-2380,-160,-1408,-375,59,1,0
54.65063,-16164,-2740,-1260,-1408,-293,1525,1,0
54.7004,-16112,-2616,-1408,-1424,-157,371,1,0
54.73357,-16232,-2768,-1044,-1392,-272,-20,1,0
54.81651,-16156,-2596,-1524,-1392,-457,196,1,0
54.84969,-16104,-2800,-1008,-1408,-485,-697,1,0
54.96581,-15868,-3000,-632,-1344,-200,-434,1,0
54.98241,-16556,-2488,-1400,-1424,-199,-667,1,0
55.03218,-16592,-2620,-1024,-1440,-85,-449,1,0
55.06536,-16276,-2740,-800,-1392,-38,44,1,0
55.09854,-16084,-2860,-1064,-1392,-15,219,1,0
55.14831,-16040,-2988,-1316,-1360,-88,-197,1,0
55.21466,-16056,-2932,-1036,-1424,-170,-488,1,0
55.26445,-16264,-2824,-1096,-1376,-237,-138,1,0
55.33078,-16036,-2940,-812,-1408,-288,-15,1,0
55.36431,-16220,-2840,-1168,-1392,-282,-84,1,0
55.41407,-16044,-2804,-612,-1424,-173,-136,1,0
55.48052,-16220,-3084,-996,-1376,-211,418,1,0
55.51345,-16152,-2856,-876,-1392,-324,-165,1,0
55.56352,-16192,-2696,-660,-1360,-292,-32,1,0
55.59671,-16204,-3156,-608,-1376,-442,-518,1,0
55.64652,-15968,-2796,-320,-1408,-121,-675,1,0
55.67972,-16252,-3008,-1180,-1408,-65,170,1,0
55.74612,-16232,-3136,-540,-1392,-56,-295,1,0
55.77932,-16304,-2860,-632,-1392,-295,-790,1,0
55.86231,-16204,-2988,-216,-1376,-196,-123,1,0
55.89552,-16120,-2912,-532,-1408,-166,-215,1,0
55.92871,-16068,-2880,-488,-1408,-219,-324,1,0
56.01171,-16008,-2812,-88,-1408,-199,-725,1,0
56.04493,-15932,-3020,-124,-1392,400,-158,1,0
56.09473,-16308,-3188,-924,-1360,358,-1192,1,0
56.16112,-16192,-2652,-56,-1408,145,-2132,1,0
56.19431,-16128,-2976,-868,-1376,-347,206,1,0
56.27731,-16000,-3132,240,-1392,-152,-692,1,0
56.31051,-16196,-3040,408,-1408,-223,-571,1,0
56.3769,-16140,-3372,360,-1392,-121,175,1,0
56.45989,-15956,-3040,-108,-1392,-103,-260,1,0
56.49308,-16028,-3140,228,-1376,46,-989,1,0
56.52629,-16168,-3192,512,-1360,-54,-366,1,0
56.57608,-16084,-3276,356,-1360,-19,-276,1,0
56.60928,-16104,-3228,456,-1376,-65,-562,1,0
56.64249,-16164,-3524,496,-1392,-253,32,1,0
56.67569,-15916,-3120,620,-1408,-287,-162,1,0
56.79187,-15820,-3260,684,-1408,-288,-80,1,0
56.84167,-16104,-3312,480,-1392,-152,-330,1,0
56.87487,-15972,-3452,560,-1376,-128,69,1,0
56.90807,-16144,-3128,376,-1408,-141,-237,1,0
56.99107,-15944,-3460,1060,-1376,-161,-304,1,0
57.02427,-16028,-3280,832,-1408,-155,131,1,0
57.05747,-16032,-3260,1512,-1392,-121,700,1,0
57.09067,-15900,-3176,488,-1392,-210,1005,1,0
57.14047,-16068,-3260,428,-1408,-183,-596,1,0
57.19026,-16052,-3352,832,-1408,-160,-279,1,0
57.20687,-16052,-3524,376,-1392,-170,15,1,0
57.32306,-16240,-3184,904,-1408,-775,-115,1,0
57.35626,-15592,-3364,1196,-1360,-127,1493,1,0
57.38945,-16264,-3176,-136,-1360,-199,482,1,0
57.43926,-15964,-3264,716,-1360,-120,-640,1,0
57.47245,-16064,-3404,804,-1376,-258,-136,1,0
57.53885,-16212,-3424,328,-1392,-506,-141,1,0
57.58865,-15932,-3152,980,-1376,-313,-16,1,0
57.62185,-16144,-3428,796,-1392,89,294,1,0
57.65504,-15976,-3488,316,-1376,118,736,1,0
57.73804,-16140,-3020,216,-1392,-9,-347,1,0
57.85424,-15976,-3280,800,-1408,-210,748,1,0
57.87085,-16076,-3360,220,-1376,-184,352,1,0
57.92064,-16068,-3200,764,-1360,-266,42,1,0
57.97043,-16140,-3292,700,-1392,-392,261,1,0
57.98703,-15836,-3240,888,-1408,-311,763,1,0
58.03684,-16096,-3284,320,-1392,-376,693,1,0
58.08664,-15964,-3208,352,-1392,-219,34,1,0
58.11984,-16208,-3436,636,-1360,0,66,1,0
58.18624,-15980,-3300,556,-1392,-29,120,1,0
58.21944,-16060,-3544,924,-1392,-79,637,1,0
58.25264,-16192,-3492,264,-1344,-392,1003,1,0
58.30244,-15920,-3212,164,-1392,-202,179,1,0
58.36884,-15892,-3352,580,-1392,-10,-189,1,0
58.40205,-15976,-3372,484,-1360,-267,-107,1,0
58.45184,-15916,-3164,636,-1376,-123,-353,1,0
58.48505,-16164,-3440,544,-1392,-116,181,1,0
58.51825,-15924,-3424,452,-1392,-173,178,1,0
58.56804,-15944,-3336,652,-1360,-55,-24,1,0
58.63443,-16008,-3536,288,-1392,113,-132,1,0
58.66763,-15992,-3088,604,-1392,127,-316,1,0
58.70082,-16188,-3324,1140,-1392,49,30,1,0
58.81703,-15964,-3296,424,-1392,-87,1254,1,0
58.85022,-16000,-3212,84,-1344,-71,-348,1,0
58.90002,-16064,-3304,860,-1376,-121,-232,1,0
58.93322,-16088,-3264,608,-1344,-165,222,1,0
58.98301,-15992,-3216,572,-1376,-225,362,1,0
58.99961,-15868,-3256,596,-1408,-13,228,1,0
59.04941,-16056,-3448,576,-1408,-36,252,1,0
59.11581,-16004,-3296,552,-1376,-137,258,1,0
59.16562,-16080,-3536,536,-1440,-286,389,1,0
59.23201,-16012,-3276,504,-1360,-21,489,1,0
59.28181,-16132,-3288,328,-1408,-36,7,1,0
59.31501,-15960,-3380,780,-1392,39,168,1,0
59.34821,-16020,-3128,544,-1360,36,399,1,0
59.38141,-16084,-3428,512,-1408,-30,212,1,0
59.43114,-16020,-3232,76,-1392,-76,98,1,0
59.46441,-16080,-3368,584,-1392,-63,300,1,0
59.4976,-15948,-3372,156,-1360,-124,304,1,0
59.56401,-16004,-3316,612,-1376,-17,-347,1,0
59.6138,-15964,-3440,464,-1376,80,534,1,0
59.647,-16024,-3288,424,-1344,1,-263,1,0
59.6802,-16160,-3232,676,-1392,-133,193,1,0
59.71339,-15896,-3228,520,-1376,-130,1165,1,0
59.76321,-15988,-3352,160,-1376,-160,142,1,0
59.7964,-15984,-3364,544,-1376,-113,31,1,0
59.82959,-16080,-3212,556,-1392,-65,147,1,0
59.91259,-15956,-3536,676,-1392,11,448,1,0
59.9458,-16064,-3364,592,-1344,-82,241,1,0
59.99559,-16048,-3184,328,-1360,-121,125,1,0
60.01219,-16044,-3260,388,-1376,-48,-220,1,0
60.06199,-15952,-3228,616,-1376,-1,-91,1,0
60.09519,-16144,-3332,792,-1392,-47,167,1,0
60.12839,-16008,-3376,88,-1392,-54,463,1,0
60.21138,-16000,-3172,708,-1360,31,-370,1,0
60.24458,-16192,-3304,760,-1360,-108,607,1,0
60.27779,-16084,-3248,180,-1376,-116,859,1,0
60.31098,-16012,-3060,532,-1360,-25,-380,1,0
60.36078,-15992,-3340,616,-1392,-6,182,1,0
60.41059,-16132,-3324,412,-1392,-104,-1,1,0
60.42719,-16108,-3272,376,-1344,-53,177,1,0
60.5102,-15988,-3220,564,-1360,-35,-111,1,0
60.54339,-16092,-3184,400,-1344,-176,179,1,0
60.5766,-15896,-3152,620,-1376,-114,209,1,0
60.65959,-16020,-3192,608,-1344,7,227,1,0
60.69279,-16180,-3304,288,-1344,-82,289,1,0
60.72599,-16100,-3408,660,-1360,-152,134,1,0
60.77578,-15912,-3052,660,-1360,-130,399,1,0
60.80899,-16068,-3268,396,-1376,-55,-47,1,0
60.8754,-16048,-3260,468,-1360,-213,116,1,0
60.9252,-15920,-3220,592,-1328,-9,228,1,0
60.9584,-16064,-3344,444,-1344,-31,122,1,0
60.9916,-15880,-3228,784,-1392,-80,-27,1,0
61.0414,-15916,-3208,380,-1376,-106,127,1,0
61.07459,-16068,-3376,636,-1360,-56,32,1,0
61.10779,-16068,-3308,612,-1344,-87,201,1,0
61.19079,-15960,-3248,372,-1360,-103,292,1,0
61.22399,-16116,-3208,500,-1392,-123,-82,1,0
61.25719,-15904,-3228,732,-1360,-21,247,1,0
61.29038,-16160,-3164,416,-1360,-96,141,1,0
61.34018,-16092,-3260,536,-1360,-107,106,1,0
61.37339,-16124,-3268,448,-1360,-128,99,1,0
61.40659,-15940,-3152,464,-1344,32,362,1,0
61.48959,-16256,-3212,172,-1376,-84,-240,1,0
61.52278,-16072,-3332,724,-1360,-169,281,1,0
61.55599,-15924,-3092,568,-1360,-213,208,1,0
61.60578,-16120,-3376,368,-1344,-49,304,1,0
61.63898,-15944,-3180,508,-1392,-17,34,1,0
61.72197,-16056,-3296,664,-1376,13,94,1,0
61.73857,-16056,-3320,376,-1360,-72,196,1,0
61.78838,-15988,-3140,636,-1360,-31,193,1,0
61.85476,-16052,-3236,380,-1392,-96,208,1,0
61.88797,-16000,-3228,456,-1360,-82,104,1,0
61.93777,-16012,-3220,348,-1392,-83,171,1,0
61.97096,-15988,-3156,460,-1328,-55,91,1,0
62.02076,-16088,-3268,644,-1376,-106,-15,1,0
62.05395,-16144,-3296,464,-1360,-85,401,1,0
62.12035,-15928,-3176,516,-1344,-72,25,1,0
62.20335,-16112,-3244,648,-1376,-109,112,1,0
62.23655,-15940,-3184,432,-1360,-50,211,1,0
62.26974,-15880,-3200,600,-1360,44,89,1,0
62.30295,-16128,-3176,440,-1360,-7,30,1,0
62.35274,-16064,-3256,576,-1360,-5,206,1,0
62.38594,-16028,-3400,460,-1344,-69,249,1,0
62.43574,-16048,-3144,584,-1344,-90,166,1,0
62.45182,-16104,-3224,476,-1344,-113,252,1,0
62.50162,-16100,-3212,620,-1328,-43,70,1,0
62.568,-16072,-3272,392,-1344,-62,147,1,0
62.651,-16004,-3176,912,-1360,3,-118,1,0
62.6842,-16100,-3192,444,-1344,-72,265,1,0
62.7174,-16008,-3204,540,-1392,-7,220,1,0
62.7506,-16084,-3236,468,-1344,-51,128,1,0
62.8004,-16088,-3168,756,-1328,-46,-56,1,0
62.8336,-15980,-3268,644,-1344,-16,216,1,0
62.9166,-16000,-3204,600,-1344,-22,275,1,0
62.94979,-16076,-3260,752,-1344,-68,316,1,0
62.983,-16060,-3096,288,-1360,-105,130,1,0
63.03279,-15988,-3316,548,-1328,-77,-5,1,0
63.06601,-16008,-3132,620,-1328,-30,372,1,0
63.0992,-16028,-3164,472,-1344,-45,-58,1,0
63.1324,-16112,-3244,568,-1328,-158,277,1,0
63.18221,-15904,-2984,764,-1296,-57,204,1,0
63.24862,-16028,-3284,548,-1376,-95,128,1,0
63.28181,-15960,-3208,468,-1360,-132,78,1,0
63.31502,-16124,-3104,728,-1344,-79,-25,1,0
63.36481,-16020,-3396,400,-1360,-33,360,1,0
63.39803,-16024,-3128,632,-1376,-90,9,1,0
63.43122,-15980,-3300,648,-1344,-22,369,1,0
63.48102,-16060,-3164,396,-1344,-90,-27,1,0
63.58062,-16208,-3252,656,-1360,-97,-47,1,0
63.61383,-16048,-3180,740,-1344,-34,224,1,0
63.69682,-15992,-3192,596,-1344,-71,123,1,0
63.73003,-16080,-3288,592,-1360,-62,40,1,0
63.77983,-16132,-3172,464,-1344,-65,125,1,0
63.81302,-16028,-3168,508,-1344,-128,193,1,0
63.84618,-15984,-3156,840,-1360,-24,115,1,0
63.87943,-16200,-3248,496,-1312,-21,131,1,0
63.96243,-15968,-3172,688,-1344,-39,115,1,0
63.99511,-16012,-3252,528,-1328,-93,220,1,0
64.04491,-15968,-3168,588,-1376,-109,201,1,0
64.07805,-16140,-3244,484,-1344,-87,70,1,0
64.11124,-16072,-3136,712,-1360,-109,66,1,0
64.16101,-15944,-3224,816,-1360,-5,220,0,0
64.19419,-16068,-3260,400,-1360,-58,240,0,0
64.21078,-16068,-3336,648,-1360,-77,277,0,0
64.29374,-16076,-3144,512,-1344,-133,-55,0,0
64.32693,-16004,-3308,756,-1328,-58,189,0,0
64.37671,-16132,-3144,572,-1360,-39,263,0,0
64.40987,-15960,-3288,848,-1312,89,366,0,0
64.44307,-16156,-3232,564,-1360,-23,169,0,0
64.47626,-15988,-3204,832,-1344,-67,25,0,0
64.52602,-16196,-3208,472,-1328,-223,422,0,0
64.59238,-15820,-3172,828,-1344,-96,292,0,0
64.62557,-16236,-3180,184,-1328,-257,163,0,0
64.67534,-16140,-3140,880,-1328,-158,-7,0,0
64.70853,-16152,-3228,712,-1392,-133,311,0,0
64.74171,-15940,-3024,492,-1344,-76,335,0,0
64.79148,-16232,-3284,400,-1328,-80,83,0,0
64.82467,-16060,-3124,476,-1360,-322,-11,0,0
64.89103,-16200,-3360,856,-1312,-326,543,0,0
64.94081,-16036,-3192,120,-1376,-301,425,0,0
64.97399,-15920,-3236,440,-1344,-185,-70,0,0
65.04035,-16116,-3232,644,-1344,-106,13,0,0
65.12331,-15948,-3172,376,-1360,8,457,0,0
65.15649,-16048,-3324,364,-1376,3,-128,0,0
65.20627,-16068,-3212,668,-1360,-32,206,0,0
65.23946,-15956,-3188,776,-1312,-35,243,0,0
65.30582,-16072,-3264,360,-1360,-88,332,0,0
65.339,-16100,-3192,532,-1328,-89,143,0,0
65.38877,-16080,-3204,616,-1344,-121,580,0,0
65.42196,-15888,-3116,288,-1376,-98,215,0,0
65.45515,-16152,-3268,448,-1344,-45,111,0,0
65.50492,-16052,-3128,484,-1328,-88,-3,0,0
65.53809,-16100,-3476,460,-1328,-70,205,0,0
65.60446,-16024,-3044,672,-1328,-176,226,0,0
65.65423,-16220,-3412,460,-1328,-82,327,0,0
65.6873,-16076,-3172,248,-1328,-46,183,0,0
65.7206,-16084,-3236,580,-1344,-70,-103,0,0
65.75378,-16040,-3284,300,-1344,-71,203,0,0
65.80355,-16012,-3276,416,-1376,-130,109,0,0
65.83674,-16036,-3344,560,-1328,-104,535,0,0
65.90311,-16152,-3196,516,-1328,-29,-161,0,0
65.95287,-16020,-3344,744,-1312,42,274,0,0
65.96827,-15908,-3292,220,-1312,-3,236,0,0
66.01961,-16040,-3276,504,-1328,-62,29,0,0
66.10265,-16096,-3268,412,-1328,-146,135,0,0
66.13587,-16048,-3112,584,-1344,-53,195,0,0
66.18568,-16104,-3316,396,-1344,-84,179,0,0
66.21889,-15976,-3176,308,-1344,-175,449,0,0
66.28529,-16016,-3172,776,-1312,-65,109,0,0
66.3185,-16012,-3200,520,-1328,-167,303,0,0
66.36831,-16136,-3256,428,-1344,-129,161,0,0
66.40152,-16056,-3220,336,-1360,-98,387,0,0
66.43474,-16008,-3192,704,-1360,-28,-29,0,0
66.51775,-16076,-3232,348,-1376,-24,352,0,0
66.55095,-16088,-3324,624,-1360,-78,252,0,0
66.61736,-15996,-3108,500,-1312,-123,86,0,0
66.65057,-16016,-3248,548,-1328,26,227,0,0
66.70039,-16196,-3328,400,-1328,-33,315,0,0
66.7336,-16048,-3128,508,-1360,-23,193,0,0
66.78341,-16144,-3148,428,-1328,-50,-36,0,0
66.81661,-16104,-3184,484,-1344,-6,413,0,0
66.84982,-16108,-3240,288,-1328,-118,175,0,0
66.88303,-16004,-3224,920,-1312,-150,183,0,0
66.96604,-16152,-3236,112,-1344,-134,582,0,0
66.99925,-15952,-3444,264,-1312,-167,859,0,0
67.03246,-16056,-3004,76,-1328,-238,563,0,0
67.08228,-16024,-3012,568,-1312,-132,970,0,0
67.14867,-16064,-3152,64,-1328,-90,1007,0,0
67.18189,-16096,-3288,-200,-1344,-80,450,0,0
67.2151,-15808,-3160,432,-1328,48,1136,0,0
67.29812,-16224,-3016,0,-1328,-293,1966,0,0
67.33133,-15908,-3120,-436,-1344,-62,1536,0,0
67.38061,-16020,-3268,-416,-1328,-26,982,0,0
67.4138,-16136,-3248,-564,-1296,-86,987,0,0
67.48016,-16060,-3080,-668,-1296,-94,671,0,0
67.51334,-15996,-3156,-628,-1344,-44,671,0,0
67.56312,-16012,-3252,-524,-1328,89,738,0,0
67.59631,-15964,-3344,-992,-1312,1,101,0,0
67.62949,-16068,-3152,-128,-1344,-251,215,0,0
67.67928,-16100,-3476,-316,-1328,-55,1481,0,0
67.71246,-16104,-3360,-1196,-1344,-118,944,0,0
67.77883,-16096,-3392,-844,-1312,-274,883,0,0
67.82861,-16236,-3632,-904,-1328,-142,1382,0,0
67.8618,-15848,-3168,-1232,-1328,209,880,0,0
67.89498,-15832,-3308,-1076,-1312,139,855,0,0
67.97794,-16132,-3392,-1480,-1328,47,862,0,0
68.01114,-15928,-3548,-1424,-1328,-2,1125,0,0
68.0775,-15548,-3640,-1616,-1312,192,249,0,0
68.11069,-16100,-3688,-1560,-1360,222,386,0,0
68.16047,-16340,-3392,-1728,-1344,516,385,0,0
68.19366,-16180,-3468,-1408,-1296,458,962,0,0
68.24344,-15868,-3748,-2004,-1360,179,762,0,0
68.27663,-15796,-3508,-1624,-1328,-40,115,0,0
68.343,-16024,-3644,-1768,-1312,-23,127,0,0
68.39278,-15976,-3608,-1308,-1328,-116,138,0,0
68.42596,-16084,-3532,-1508,-1328,-53,985,0,0
68.49232,-15820,-3752,-1916,-1328,39,668,0,0
68.54211,-15896,-3612,-1628,-1296,170,973,0,0
68.57529,-15888,-3480,-1852,-1344,130,647,0,0
68.64167,-15768,-4048,-1932,-1312,-5,346,0,0
68.69144,-15912,-3660,-2160,-1312,164,454,0,0
68.72463,-16056,-3652,-1960,-1328,194,252,0,0
68.75783,-15760,-3744,-2096,-1296,-154,574,0,0
68.84078,-15896,-3832,-1952,-1312,-220,217,0,0
68.92375,-16020,-3812,-2180,-1328,-215,483,0,0
68.94034,-16000,-3628,-2112,-1312,-179,202,0,0
69.02332,-15820,-3936,-1776,-1312,-96,491,0,0
69.07308,-15852,-3772,-2012,-1312,-60,838,0,0
69.08968,-16020,-3816,-1992,-1328,32,576,0,0
69.13947,-15852,-3876,-2312,-1312,-2,1024,0,0
69.20583,-15732,-3808,-2344,-1312,138,846,0,0
69.25561,-15788,-3920,-2440,-1344,105,605,0,0
69.28871,-15896,-3844,-2280,-1312,15,1006,0,0
69.32199,-15764,-3752,-2248,-1360,238,917,0,0
69.35516,-15520,-4144,-2948,-1328,182,485,0,0
69.43812,-15772,-4056,-2524,-1296,-178,56,0,0
69.50451,-15820,-3868,-2248,-1328,158,997,0,0
69.55428,-15668,-4124,-2756,-1296,153,1120,0,0
69.58746,-15596,-4064,-2876,-1328,132,696,0,0
69.62066,-15500,-3936,-2648,-1344,236,153,0,0
69.67044,-15552,-3996,-2736,-1328,263,238,0,0
69.70362,-15768,-4180,-2936,-1296,250,310,0,0
69.76998,-15748,-4172,-2888,-1312,-17,20,0,0
69.80183,-15744,-4028,-2736,-1312,-120,157,0,0
69.85294,-15712,-4044,-2792,-1328,-48,498,0,0
69.88614,-15692,-4064,-2728,-1312,1,369,0,0
69.91933,-15564,-4092,-2784,-1328,161,470,0,0
69.96911,-15648,-4296,-2960,-1328,256,170,0,0
70.00229,-15732,-4324,-2904,-1344,-64,38,0,0
70.06866,-15652,-4096,-2960,-1344,18,138,0,0
70.10184,-15688,-4136,-2892,-1312,79,-56,0,0
70.15163,-15864,-4260,-2632,-1296,-97,-65,0,0
70.18477,-15616,-4184,-3056,-1312,55,68,0,0
70.218,-15664,-4248,-2876,-1344,-12,158,0,0
70.25119,-15676,-4124,-2764,-1328,-14,54,0,0
70.33453,-15560,-4260,-2868,-1328,-55,142,0,0
70.3677,-15820,-4180,-2776,-1296,-97,217,0,0
70.41748,-15668,-4032,-2776,-1344,-95,81,0,0
70.50042,-15632,-4204,-2836,-1312,78,184,0,0
70.56679,-15680,-4216,-2920,-1360,17,110,0,0
70.59997,-15716,-4136,-2732,-1280,-109,136,0,0
70.63316,-15696,-4036,-2784,-1328,-145,297,0,0
70.66634,-15620,-4236,-3052,-1328,-328,294,0,0
70.7161,-15660,-3900,-2248,-1312,-283,361,0,0
70.7493,-15712,-4140,-2908,-1328,-111,100,0,0
70.81565,-15648,-4208,-2548,-1344,-47,151,0,0
70.89861,-15696,-4136,-2796,-1344,138,266,0,0
70.93179,-15628,-4220,-2980,-1312,24,96,0,0
70.96499,-15536,-4052,-2908,-1312,-53,34,0,0
71.01476,-15724,-4008,-2556,-1296,-249,-182,0,0
71.04794,-15592,-3984,-2764,-1312,-176,329,0,0
71.1143,-15696,-4164,-3052,-1312,-20,-4,0,0
71.16408,-15796,-4088,-2752,-1344,-48,154,0,0
71.19726,-15572,-4176,-2840,-1280,-13,167,0,0
71.23038,-15660,-4204,-2848,-1328,-25,67,0,0
71.28023,-15692,-4164,-2628,-1312,-115,305,0,0
71.31339,-15664,-4096,-2884,-1296,-49,163,0,0
71.37977,-15756,-4064,-2764,-1312,1,0,0,0
71.42955,-15792,-4148,-2740,-1296,-23,213,0,0
71.46272,-15700,-4112,-2888,-1296,-59,245,0,0
71.49591,-15500,-4052,-2884,-1312,24,132,0,0
71.52909,-15784,-4216,-2620,-1312,-86,326,0,0
71.57887,-15484,-4184,-2888,-1296,-159,50,0,0
71.64523,-15860,-4200,-2740,-1328,-286,47,0,0
71.67841,-15612,-4148,-3068,-1312,-180,183,0,0
71.71159,-15724,-4072,-2612,-1312,-134,10,0,0
71.76135,-15612,-4096,-2960,-1280,-66,131,0,0
71.82771,-15668,-4224,-2876,-1296,-85,234,0,0
71.8775,-15704,-4028,-2720,-1312,-92,-9,0,0
71.99364,-15788,-4084,-2968,-1280,-56,243,0,0
72.02682,-15700,-4128,-2728,-1280,-124,181,0,0
72.06001,-15620,-4116,-2840,-1344,-63,121,0,0
72.09319,-15660,-4116,-2840,-1312,-51,98,0,0
72.14297,-15700,-4036,-2960,-1312,-17,319,0,0
72.17614,-15672,-4208,-2812,-1312,-33,96,0,0
72.20933,-15640,-4072,-2744,-1328,24,219,0,0
72.27569,-15676,-4092,-2956,-1296,-120,123,0,0
72.35864,-15792,-4104,-2764,-1312,-89,166,0,0
72.39184,-15624,-4084,-2748,-1312,-70,174,0,0
72.4416,-15548,-4156,-2756,-1328,-63,198,0,0
72.47479,-15732,-4140,-2964,-1312,-92,182,0,0
72.50797,-15692,-4044,-2736,-1280,-80,105,0,0
72.59092,-15592,-4248,-2628,-1328,-43,245,0,0
72.62411,-15656,-4044,-2748,-1280,-108,100,0,0
72.6573,-15816,-3976,-2828,-1312,-77,155,0,0
72.70708,-15688,-4072,-2788,-1312,-95,188,0,0
72.74026,-15716,-4200,-2716,-1312,-38,148,0,0
72.80663,-15756,-4080,-2608,-1312,-44,237,0,0
72.83981,-15688,-4128,-2904,-1280,-27,203,0,0
72.88959,-15652,-4172,-2736,-1296,-101,71,0,0
72.92276,-15724,-4056,-2580,-1296,-76,124,0,0
72.95596,-15732,-4104,-2824,-1264,-102,162,0,0
73.00562,-15668,-4128,-2716,-1328,-62,102,0,0
73.0721,-15672,-4088,-2972,-1296,-11,171,0,0
73.10528,-15648,-4056,-2736,-1296,-96,97,0,0
73.15505,-15576,-4136,-2856,-1296,-66,105,0,0
73.18823,-15676,-4112,-2672,-1328,-78,175,0,0
73.2213,-15628,-4084,-2852,-1296,-102,129,0,0
73.30437,-15664,-4080,-2864,-1264,16,147,0,0
73.33755,-15720,-4156,-2724,-1312,-103,101,0,0
73.42052,-15664,-4092,-2656,-1296,-44,360,0,0
73.48689,-15736,-4124,-2864,-1312,-6,141,0,0
73.52007,-15816,-4248,-2688,-1312,-66,107,0,0
73.56984,-15580,-4028,-3088,-1296,-59,110,0,0
73.60302,-15804,-4208,-2752,-1296,-41,-31,0,0
73.6362,-15700,-4096,-2580,-1328,-56,375,0,0
73.68599,-15656,-4056,-2948,-1328,-49,132,0,0
73.71917,-15656,-4004,-2728,-1296,70,-31,0,0
73.78552,-15912,-4064,-2812,-1296,64,-54,0,0
73.81872,-15664,-4056,-2952,-1328,-52,270,0,0
73.85191,-15696,-3992,-2696,-1264,-11,-92,0,0
73.90166,-15756,-4164,-2828,-1312,-112,190,0,0
73.93485,-15672,-4052,-2784,-1296,-101,19,0,0
73.96803,-15700,-4048,-2636,-1264,-125,60,0,0
74.05099,-15740,-4056,-2844,-1280,-22,164,0,0
74.08417,-15792,-4244,-2688,-1296,82,195,0,0
74.13394,-15872,-4288,-2732,-1312,208,45,0,0
74.15054,-15660,-4152,-2808,-1280,-75,14,0,0
74.23349,-15740,-4024,-2632,-1280,-49,80,0,0
74.26668,-15744,-4148,-2720,-1296,-61,196,0,0
74.34962,-15608,-4228,-2608,-1280,-139,146,0,0
74.38282,-15608,-4020,-2744,-1296,86,107,0,0
74.46576,-15828,-4168,-2776,-1296,19,-106,0,0
74.49895,-15780,-4192,-2444,-1312,-83,291,0,0
74.56522,-15644,-4124,-2808,-1280,-34,186,0,0
74.61508,-15768,-4116,-2580,-1296,-77,84,0,0
74.64828,-15724,-4148,-2648,-1312,-57,234,0,0
74.68145,-15784,-4120,-2688,-1296,-172,9,0,0
74.7644,-15724,-4084,-2588,-1280,-39,182,0,0
74.81417,-15624,-4224,-2780,-1312,-23,230,0,0
74.9137,-15620,-4140,-2612,-1296,-72,86,0,0
74.94689,-15632,-4224,-2584,-1280,-114,199,0,0
74.99667,-15704,-4140,-2612,-1264,-63,62,0,0
75.02985,-15684,-4164,-2720,-1280,-164,105,0,0
75.09622,-15600,-4080,-2704,-1296,2,99,0,0
75.146,-15752,-4216,-2692,-1264,-35,94,0,0
75.16258,-15608,-4048,-2672,-1264,-43,142,0,0
75.21236,-15628,-4132,-2540,-1312,-48,123,0,0
75.29532,-15692,-4092,-2656,-1312,-214,246,0,0
75.3119,-15700,-4164,-2524,-1280,-151,8,0,0
75.39487,-15752,-4164,-2704,-1296,-110,226,0,0
75.42805,-15780,-4044,-2572,-1280,-80,262,0,0
75.47783,-15720,-4100,-2572,-1280,-45,252,0,0
75.51101,-15744,-4144,-2612,-1296,26,176,1,0
75.54419,-15728,-4116,-2592,-1296,-11,152,1,0
75.59396,-15700,-4072,-2616,-1280,-109,173,1,0
75.66032,-15656,-4092,-2740,-1296,-79,146,1,0
75.69351,-15636,-4092,-2584,-1312,-32,209,1,0
75.74327,-15692,-4196,-2632,-1280,-119,129,1,0
75.77647,-15744,-4004,-2496,-1296,-130,147,1,0
75.80965,-15724,-4016,-2360,-1296,-32,87,1,0
75.84283,-15660,-4036,-2540,-1296,-59,210,1,0
75.89262,-15624,-4068,-2760,-1296,53,8,1,0
75.95898,-15780,-4068,-2660,-1280,-60,153,1,0
75.99217,-15788,-3908,-2632,-1264,-111,173,1,0
76.04193,-15740,-4112,-2568,-1280,-98,143,1,0
76.07511,-15684,-4012,-2616,-1264,-19,258,1,0
76.10831,-15768,-4012,-2680,-1264,-31,136,1,0
76.15807,-15712,-4012,-2696,-1280,-76,135,1,0
76.25797,-15752,-4056,-2748,-1264,-99,80,1,0
76.34104,-15808,-4036,-2712,-1264,-42,243,1,0
76.35764,-15752,-4076,-2568,-1264,3,119,1,0
76.40745,-15808,-4084,-2544,-1264,-74,166,1,0
76.49046,-15768,-4160,-2492,-1280,-94,203,1,0
76.52367,-15688,-3988,-2664,-1264,-103,174,1,0
76.55687,-15628,-4064,-2608,-1296,-53,135,1,0
76.60667,-15752,-4144,-2676,-1264,-49,285,1,0
76.63989,-15580,-4004,-2808,-1312,-38,94,1,0
76.67299,-15820,-4048,-2648,-1248,-61,246,1,0
76.78931,-15644,-4088,-2684,-1280,-50,173,1,0
76.82252,-15712,-3984,-2584,-1280,-21,65,1,0
76.87232,-15756,-4088,-2524,-1296,100,152,1,0
76.90553,-15700,-4044,-2512,-1296,-9,252,1,0
76.93874,-15752,-4084,-2720,-1264,-73,82,1,0
76.97194,-15640,-4020,-2504,-1296,-103,206,1,0
77.05495,-15684,-4000,-2576,-1296,-74,151,1,0
77.08817,-15756,-4020,-2524,-1296,-66,213,1,0
77.12137,-15716,-4168,-2676,-1280,-41,219,1,0
77.15458,-15720,-4012,-2428,-1232,-142,113,1,0
77.20438,-15728,-4136,-2776,-1296,-163,192,1,0
77.23759,-15764,-4052,-2744,-1264,-15,134,1,0
77.30399,-15672,-4016,-2616,-1280,-33,66,1,0
77.38701,-15712,-4084,-2772,-1280,-60,-74,1,0
77.42022,-15776,-4128,-2728,-1296,-185,30,1,0
77.45342,-15756,-4168,-2684,-1264,-215,148,1,0
77.53645,-15768,-4196,-2768,-1280,-329,276,1,0
77.56965,-15764,-4040,-2572,-1264,-454,209,1,0
77.61946,-15708,-4004,-2492,-1296,-390,312,1,0
77.68587,-15668,-4020,-2648,-1296,-271,492,1,0
77.71909,-15700,-4036,-2796,-1248,-215,184,1,0
77.8353,-15784,-3996,-2580,-1296,-224,210,1,0
77.86851,-15736,-4156,-2708,-1264,-205,443,1,0
77.90171,-15704,-4196,-2524,-1232,-324,188,1,0
77.95152,-15680,-3944,-2696,-1264,-252,74,1,0
77.98472,-15752,-4104,-2604,-1280,-246,307,1,0
78.03453,-15700,-4000,-2536,-1280,-203,289,1,0
78.10094,-15836,-3964,-2976,-1280,-171,80,1,0
78.13414,-15728,-4052,-2588,-1264,-133,223,1,0
78.21716,-15724,-4024,-2868,-1296,-185,196,1,0
78.25037,-15660,-4108,-2836,-1232,-224,282,1,0
78.28357,-15852,-4084,-2812,-1264,-128,147,1,0
78.34997,-15640,-4008,-2940,-1280,-167,187,1,0
78.3998,-15688,-4192,-2908,-1296,-252,237,1,0
78.433,-15708,-4052,-2800,-1280,-262,99,1,0
78.46622,-15700,-4256,-2836,-1296,-233,-379,1,0
78.51601,-15880,-4100,-2668,-1248,-171,439,1,0
78.54922,-15616,-3952,-2876,-1248,-143,43,1,0
78.61564,-15704,-3912,-2740,-1232,-172,131,1,0
78.64883,-15700,-4168,-2876,-1264,-202,2,1,0
78.69865,-15652,-3828,-2612,-1264,-214,-295,1,0
78.74837,-15904,-4084,-2512,-1280,-138,-349,1,0
78.76507,-15980,-3872,-2760,-1280,-49,-61,1,0
78.81487,-15760,-4000,-2748,-1248,-55,33,1,0
78.88129,-15752,-4100,-2900,-1296,-73,-1137,1,0
78.91449,-15712,-3648,-2248,-1248,46,-952,1,0
78.96415,-15920,-3788,-2016,-1264,-70,-563,1,0
78.99751,-15804,-3900,-2292,-1264,-148,-502,1,0
79.04733,-15840,-3796,-2180,-1280,-133,-253,1,0
79.14694,-15788,-3760,-2500,-1264,-32,-175,1,0
79.18016,-15888,-3772,-2288,-1280,-9,-299,1,0
79.21335,-15944,-3804,-2176,-1264,-60,-41,1,0
79.26317,-15812,-3776,-2088,-1248,-26,17,1,0
79.29636,-15840,-3980,-2404,-1280,-270,-170,1,0
79.34618,-15872,-3896,-2056,-1264,-324,-109,1,0
79.41209,-15836,-3848,-1848,-1232,-340,185,1,0
79.44527,-15824,-3920,-2284,-1232,-402,40,1,0
79.47847,-15784,-3784,-2100,-1248,-439,6,1,0
79.52826,-15800,-3804,-2152,-1280,-227,586,1,0
79.56145,-15704,-3816,-2488,-1248,-77,86,1,0
79.67765,-16056,-4036,-2216,-1296,-287,-281,1,0
79.71086,-15788,-3684,-1944,-1264,-214,-95,1,0
79.79385,-16000,-3988,-2180,-1248,-225,-252,1,0
79.81044,-15852,-3812,-2412,-1280,-272,-563,1,0
79.86026,-15956,-4032,-1740,-1296,-219,-217,1,0
79.94325,-15992,-3848,-2280,-1248,-492,17,1,0
79.97645,-15836,-3744,-2128,-1248,-402,-535,1,0
80.00965,-15872,-3580,-1632,-1264,-109,-535,1,0
80.05944,-15904,-3672,-1524,-1264,-252,-194,1,0
80.12585,-15992,-3520,-1384,-1232,-112,267,1,0
80.15904,-16064,-3540,-2060,-1280,-124,384,1,0
80.19224,-15812,-3560,-1760,-1264,-76,-325,1,0
80.22544,-15916,-3548,-1748,-1216,14,-428,1,0
80.27524,-15992,-3644,-1368,-1264,-167,-493,1,0
80.34162,-16080,-3464,-1636,-1264,-102,-217,1,0
80.39142,-15964,-3680,-1776,-1264,-168,30,1,0
80.42462,-15992,-3444,-1324,-1264,-112,-306,1,0
80.45782,-16140,-3564,-1384,-1264,-203,7,1,0
80.49101,-16028,-3452,-1396,-1264,-286,-535,1,0
80.54082,-15860,-3412,-1284,-1216,-202,-369,1,0
80.64041,-16032,-3428,-1296,-1264,-287,45,1,0
80.72341,-15952,-3276,-1232,-1280,-91,-522,1,0
80.77321,-16060,-3488,-1080,-1264,-176,-325,1,0
80.7898,-16104,-3468,-1212,-1264,-322,-741,1,0
80.8396,-15860,-3396,-1016,-1264,-644,-1248,1,0
80.90601,-15952,-3032,-624,-1232,12,-464,1,0
80.95579,-16272,-3540,-780,-1232,-190,30,1,0
80.989,-15984,-3260,-1024,-1248,-169,-92,1,0
81.02219,-16116,-3520,-676,-1232,89,-44,1,0
81.13837,-16060,-3324,-1128,-1232,-137,-93,1,0
81.17159,-16072,-3324,-832,-1248,-188,-490,1,0
81.25457,-16172,-3432,-700,-1264,-285,-511,1,0
81.28779,-15996,-3080,-756,-1232,-13,-377,1,0
81.32098,-16052,-3412,-500,-1248,-223,273,1,0
81.35417,-16108,-3276,-780,-1232,-141,-8,1,0
81.43716,-16156,-3412,-652,-1232,-35,-23,1,0
81.47035,-16100,-3224,-628,-1264,-125,-267,1,0
81.50356,-16044,-3184,-656,-1248,-57,-125,1,0
81.55335,-16080,-3368,-404,-1248,-127,-207,1,0
81.65295,-16000,-3184,-176,-1248,-81,-132,1,0
81.70275,-16144,-3200,-592,-1248,-131,117,1,0
81.73595,-16140,-3408,-340,-1264,-83,201,1,0
81.76913,-15936,-3200,-636,-1248,-41,221,1,0
81.81895,-16224,-3220,-568,-1248,-151,-91,1,0
81.85214,-15972,-3120,-204,-1248,-99,148,1,0
81.91853,-16112,-3284,-336,-1248,-112,276,1,0
81.95174,-16128,-3088,-628,-1264,-65,-175,1,0
82.00153,-16124,-3336,-312,-1248,-49,260,1,0
82.06792,-15988,-3100,-452,-1248,-10,255,1,0
82.10113,-15936,-3256,-392,-1264,-121,239,1,0
82.18411,-16112,-3240,-540,-1216,-7,186,1,0
82.21731,-16012,-3016,-384,-1248,-113,513,1,0
82.30032,-16108,-3124,-568,-1264,-37,181,1,0
82.3335,-16100,-3388,-632,-1232,-37,244,1,0
82.38332,-16032,-3100,-248,-1232,-140,-202,1,0
82.44971,-16124,-3332,-432,-1248,-123,202,1,0
82.51611,-16028,-3272,-512,-1248,-258,23,1,0
82.5659,-16248,-3416,-776,-1264,-20,422,1,0
82.5991,-16016,-3144,-768,-1232,-26,160,1,0
82.6323,-16208,-3324,-172,-1232,-94,14,1,0
82.6655,-15956,-3364,-516,-1248,-172,623,1,0
82.7153,-15996,-3140,-324,-1232,-105,-154,1,0
82.78168,-16152,-3340,-468,-1264,-231,275,1,0
82.81489,-16148,-3360,-616,-1264,-174,321,1,0
82.86467,-16056,-3240,-552,-1264,-64,16,1,0
82.89789,-16072,-3396,-516,-1264,-14,23,1,0
82.93108,-16004,-3304,-668,-1264,-59,143,1,0
83.01408,-16104,-3360,-352,-1264,-54,-11,1,0
83.04728,-16116,-3292,-468,-1264,-82,169,1,0
83.08047,-16208,-3336,-576,-1248,-130,150,1,0
83.11366,-16060,-3360,-688,-1216,-182,236,1,0
83.16348,-16016,-3152,-464,-1216,-79,-45,1,0
83.19667,-16180,-3308,-428,-1264,-89,23,1,0
83.27966,-16152,-3276,-444,-1232,-73,199,1,0
83.31286,-16016,-3160,-340,-1248,-91,207,1,0
83.34607,-16032,-3312,-496,-1232,-26,241,1,0
83.37926,-16124,-3252,-656,-1216,-173,211,1,0
83.42906,-16052,-3320,-720,-1248,-79,162,1,0
83.52847,-16000,-3248,-340,-1232,-97,34,1,0
83.57847,-16164,-3308,-800,-1216,-88,265,1,0
83.61165,-16048,-3220,-524,-1280,-92,-242,1,0
83.64486,-16212,-3052,-344,-1248,-81,-55,1,0
83.69465,-16032,-3260,-508,-1232,-2,317,1,0
83.72785,-16096,-3368,-652,-1232,-60,-9,1,0
83.79424,-16100,-3268,-476,-1248,-139,120,1,0
83.82743,-16216,-3200,-572,-1248,-83,168,1,0
83.87723,-16008,-3280,-532,-1232,-126,153,1,0
83.89384,-16164,-3116,-496,-1248,-3,60,1,0
83.94363,-16100,-3264,-372,-1216,34,78,1,0
83.99342,-16160,-3256,-580,-1200,-51,303,1,0
84.07642,-16128,-3204,-444,-1232,-64,-113,1,0
84.17602,-15992,-3144,-404,-1216,-9,435,1,0
84.19263,-16068,-3220,-584,-1232,-92,-85,1,0
84.24242,-15988,-3220,-36,-1232,-53,98,1,0
84.29222,-15992,-3128,-428,-1264,0,197,1,0
84.32542,-16132,-3392,-692,-1232,-21,120,1,0
84.44162,-15996,-3144,-452,-1216,-150,120,1,0
84.47481,-16132,-3284,-196,-1216,-117,430,1,0
84.50802,-16144,-3064,-512,-1232,-111,209,1,0
84.55782,-16144,-3260,-332,-1248,-118,-166,1,0
84.6242,-16068,-3216,-560,-1216,-42,382,1,0
84.65739,-16200,-3240,-644,-1200,-48,-60,1,0
84.69059,-16108,-3160,-536,-1216,-136,273,1,0
84.74039,-15968,-3224,-592,-1216,-70,92,1,0
84.77359,-16096,-3288,-464,-1200,-121,99,1,0
84.80679,-16100,-3216,-508,-1232,-172,276,1,0
84.83998,-16012,-3036,-436,-1232,-19,34,1,0
84.92298,-16144,-3308,-256,-1200,2,156,1,0
85.00597,-16084,-3248,-496,-1232,-68,86,1,0
85.03918,-16224,-3160,-292,-1264,-64,91,1,0
85.07237,-16140,-3336,-432,-1216,-139,223,1,0
85.10558,-16144,-3132,-332,-1232,7,225,1,0
85.17197,-15980,-3208,-728,-1200,-38,-85,1,0
85.22178,-15980,-3092,-412,-1232,-193,156,1,0
85.27157,-16256,-3152,-356,-1232,-125,185,1,0
85.28815,-16040,-3192,-496,-1232,-94,67,1,0
85.33797,-16196,-3132,-584,-1232,2,52,1,0
85.37117,-16028,-3268,-116,-1216,9,209,1,0
85.42097,-16124,-3212,-492,-1216,-16,200,1,0
85.53708,-16092,-3060,-160,-1248,-162,6,1,0
85.60357,-16028,-3216,-352,-1232,-49,363,1,0
85.65336,-16108,-3200,-628,-1232,-11,219,1,0
85.66995,-16080,-3192,-516,-1232,-80,46,1,0
85.71976,-16132,-3112,-384,-1264,-28,170,1,0
85.78616,-16168,-3308,-424,-1216,-74,120,1,0
85.81936,-16092,-3088,-364,-1216,-44,60,1,0
85.86914,-16148,-3200,-552,-1216,-102,113,1,0
85.93553,-15976,-3092,-320,-1200,-106,199,1,0
85.95216,-16048,-3280,-368,-1216,-75,68,1,0
86.01855,-16000,-3128,-300,-1232,20,122,1,0
86.08494,-16112,-3244,-172,-1232,-97,135,1,0
86.11813,-16028,-3108,-420,-1264,-144,49,1,0
86.15133,-16172,-3256,16,-1232,-57,279,1,0
86.20113,-16068,-3152,-512,-1200,-136,396,1,0
86.23432,-16104,-3168,-600,-1216,-134,-298,1,0
86.26752,-16124,-3128,-172,-1248,23,154,1,0
86.31732,-16152,-3068,-76,-1216,-140,44,1,0
86.38372,-16056,-3300,-212,-1248,-90,216,1,0
86.46671,-16084,-3164,-488,-1232,-71,29,1,0
86.49992,-16240,-3060,-408,-1248,5,-45,1,0
86.58292,-15984,-3344,-88,-1216,-80,536,1,0
86.59951,-16056,-3300,-452,-1264,-54,7,1,0
86.64931,-16184,-3180,-204,-1232,-183,5,1,0
86.68251,-16100,-3172,-188,-1184,-125,417,1,0
86.73231,-16124,-3176,-492,-1232,-53,157,1,0
86.79871,-16108,-3204,-416,-1248,3,203,1,0
86.8319,-16060,-3168,-400,-1232,-87,8,1,0
86.8651,-16200,-3280,-392,-1232,-95,161,1,0
86.91489,-15988,-3228,-356,-1216,-236,116,1,0
87.01449,-16192,-3216,-276,-1232,-130,174,1,0
87.0643,-16156,-3156,-536,-1200,-63,49,1,0
87.09749,-16016,-3268,-152,-1232,-26,137,1,0
87.13068,-16020,-3208,-512,-1168,-11,323,1,0
87.1805,-16088,-3212,-292,-1200,-81,99,1,0
87.21368,-16016,-3072,-444,-1232,-114,169,1,0
87.24689,-16032,-3136,-220,-1216,-49,30,0,0
87.31329,-15996,-3140,-300,-1216,-63,16,0,0
87.36308,-16184,-3212,-324,-1200,58,-3,0,0
87.42948,-16068,-3072,-468,-1232,-75,2,0,0
87.59489,-16204,-3248,-252,-1216,-104,118,0,0
87.61148,-16136,-3184,-376,-1232,-107,219,0,0
87.66122,-15912,-3268,-212,-1232,7,146,0,0
87.7108,-16100,-3344,-452,-1200,-8,317,0,0
87.77731,-16128,-3252,-152,-1216,-51,111,0,0
87.81048,-16072,-3152,-480,-1232,-134,253,0,0
87.92656,-16096,-3208,-228,-1232,-142,155,0,0
87.95972,-16068,-3152,-304,-1248,-94,211,0,0
88.04264,-16132,-3240,-528,-1216,8,219,0,0
88.05923,-16076,-3140,-56,-1216,-82,-74,0,0
88.10899,-16172,-3436,-536,-1216,-68,314,0,0
88.17532,-16036,-3208,-452,-1232,-56,175,0,0
88.22545,-16160,-3224,-416,-1200,-75,202,0,0
88.25861,-16164,-3124,-432,-1232,-119,104,0,0
88.30846,-16076,-3088,-124,-1216,-55,198,0,0
88.34165,-16064,-3220,-392,-1216,-89,232,0,0
88.37485,-16072,-3228,-220,-1216,-97,172,0,0
88.45783,-16008,-3160,-212,-1184,-97,245,0,0
88.52422,-16056,-3184,-216,-1200,-76,299,0,0
88.55741,-16068,-3180,-488,-1200,-153,140,0,0
88.59061,-16128,-3300,-360,-1200,-170,212,0,0
88.64041,-16020,-3148,-232,-1232,2,93,0,0
88.70682,-16140,-3296,-364,-1216,-25,229,0,0
88.74002,-16084,-3200,-644,-1232,-40,229,0,0
88.78982,-16008,-3240,-160,-1200,-79,145,0,0
88.85622,-16052,-3352,-448,-1232,-64,271,0,0
88.88942,-16208,-3096,-328,-1216,-4,79,0,0
88.93922,-16060,-3284,-240,-1184,-28,342,0,0
88.97243,-16008,-3320,-484,-1232,-62,-54,0,0
89.02222,-16120,-3120,-144,-1200,-140,271,0,0
89.05544,-16000,-3140,-312,-1232,-54,172,0,0
89.08863,-16128,-3244,-380,-1216,6,62,0,0
89.15495,-16232,-3304,-340,-1216,-163,46,0,0
89.18822,-16128,-3172,-224,-1248,-81,139,0,0
89.23804,-16032,-3228,-452,-1232,-86,165,0,0
89.27122,-15980,-3152,-576,-1248,-132,102,0,0
89.32103,-16076,-3108,-232,-1232,-87,95,0,0
89.38744,-16088,-3224,-452,-1200,-20,253,0,0
89.50364,-16112,-3156,-292,-1232,-99,135,0,0
89.53683,-16068,-3088,-512,-1168,-41,237,0,0
89.57004,-16056,-3176,-416,-1168,-171,464,0,0
89.60323,-16052,-3240,-476,-1184,-55,106,0,0
89.65305,-16120,-3228,-208,-1200,-101,369,0,0
89.68624,-16048,-3296,-404,-1184,90,488,0,0
89.71945,-16160,-3316,-452,-1200,-90,373,0,0
89.80244,-15976,-3228,-488,-1232,-5,210,0,0
89.81905,-16132,-3296,-360,-1184,-58,238,0,0
89.91863,-15940,-3288,-412,-1184,-118,220,0,0
89.93523,-16168,-3260,-552,-1216,-12,190,0,0
89.96844,-16076,-3068,-292,-1200,-57,330,0,0
90.01823,-16108,-3376,-508,-1232,-31,413,0,0
90.06803,-16084,-3252,-492,-1200,63,304,0,0
90.13392,-16120,-3296,-592,-1200,-64,343,0,0
90.16695,-16084,-3296,-800,-1200,-45,247,0,0
90.21692,-16112,-3240,-460,-1216,-6,300,0,0
90.25014,-16000,-3244,-648,-1216,38,439,0,0
90.31653,-16068,-3132,-636,-1200,-37,265,0,0
90.36633,-16092,-3404,-596,-1200,58,40,0,0
90.43273,-16156,-3280,-420,-1216,98,310,0,0
90.51575,-16012,-3300,-684,-1200,6,262,0,0
90.54896,-16068,-3352,-544,-1200,93,180,0,0
90.58217,-16056,-3476,-616,-1216,-39,248,0,0
90.61536,-15988,-3416,-436,-1200,-96,351,0,0
90.66515,-15892,-3380,-384,-1232,-196,345,0,0
90.69837,-16020,-3356,-624,-1168,-20,530,0,0
90.74818,-16096,-3524,-1040,-1184,-94,609,0,0
90.84779,-16112,-3352,-824,-1216,-11,316,0,0
90.88099,-15996,-3252,-472,-1216,-18,400,0,0
90.93079,-16164,-3516,-800,-1216,11,881,0,0
90.964,-16044,-3404,-984,-1232,14,628,0,0
90.9972,-16008,-3296,-884,-1216,65,135,0,0
91.03041,-16100,-3316,-892,-1216,76,247,0,0
91.08021,-16132,-3396,-836,-1200,0,203,0,0
91.14662,-15996,-3220,-704,-1200,-52,403,0,0
91.17982,-16008,-3260,-948,-1184,-9,956,0,0
91.22963,-16076,-3412,-1112,-1216,-141,684,0,0
91.26284,-16028,-3592,-1092,-1216,-82,1602,0,0
91.31264,-15996,-3372,-1596,-1232,121,1117,0,0
91.32865,-15908,-3400,-1544,-1152,56,676,0,0
91.41225,-15940,-3236,-1156,-1232,3,860,0,0
91.44547,-16088,-3408,-1468,-1200,44,1446,0,0
91.47867,-16020,-3636,-1864,-1200,67,1554,0,0
91.51187,-15612,-3424,-1808,-1168,291,1336,0,0
91.56168,-15884,-3468,-1824,-1248,9,1251,0,0
91.61149,-15888,-3552,-2048,-1184,76,1171,0,0
91.66129,-15956,-3620,-2248,-1168,-67,1307,0,0
91.71109,-15832,-3284,-2416,-1200,-349,1483,0,0
91.7775,-15928,-3880,-1580,-1168,-993,3704,0,0
91.82732,-15360,-4520,-3920,-1200,-56,2714,0,0
91.86052,-15160,-3944,-3708,-1216,401,-337,0,0
91.92693,-15656,-4388,-2700,-1216,221,-526,0,0
91.97674,-15940,-4056,-2828,-1200,431,297,0,0
92.00994,-15640,-4300,-3208,-1200,574,707,0,0
92.04314,-15460,-3980,-3324,-1168,428,144,0,0
92.09295,-15748,-4148,-3060,-1184,345,186,0,0
92.12563,-15664,-4132,-3016,-1168,215,567,0,0
92.19203,-15396,-4024,-3220,-1200,237,349,0,0
92.24182,-15632,-4072,-3296,-1184,97,505,0,0
92.30823,-15808,-4136,-3252,-1232,119,266,0,0
92.35804,-15520,-4180,-2980,-1184,175,455,0,0
92.37463,-15668,-4404,-3276,-1168,338,451,0,0
92.40784,-15568,-4224,-3304,-1184,150,483,0,0
92.45764,-15392,-4244,-3240,-1184,33,591,0,0
92.54063,-15500,-4388,-3212,-1184,38,769,0,0
92.57384,-15616,-4312,-3452,-1184,-113,417,0,0
92.60705,-15512,-4228,-3332,-1216,-83,343,0,0
92.65684,-15540,-4356,-3580,-1200,-67,296,0,0
92.72325,-15504,-4180,-3504,-1184,-43,168,0,0
92.75645,-15604,-4380,-3404,-1200,-46,421,0,0
92.83945,-15464,-4316,-3540,-1184,-14,284,0,0
92.88925,-15508,-4368,-3716,-1184,-22,148,0,0
92.90585,-15576,-4300,-3216,-1200,-139,178,0,0
92.92245,-15524,-4404,-3672,-1168,52,403,0,0
92.95567,-15428,-4232,-3620,-1216,72,65,0,0
92.98886,-15564,-4332,-3408,-1168,67,88,0,0
93.05527,-15444,-4300,-3728,-1200,-98,353,0,0
93.10507,-15432,-4232,-3460,-1232,-265,300,0,0
93.13828,-15520,-4280,-3396,-1216,-326,38,0,0
93.17149,-15492,-4208,-3640,-1232,-5,151,0,0
93.25397,-15400,-4164,-3684,-1216,142,13,0,0
93.28711,-15476,-4260,-3708,-1200,137,153,0,0
93.35348,-15536,-4184,-3648,-1184,90,216,0,0
93.40326,-15520,-4220,-3472,-1200,-19,84,0,0
93.43643,-15616,-4208,-3432,-1184,-104,255,0,0
93.46962,-15560,-4304,-3580,-1184,-17,115,0,0
93.51939,-15636,-4300,-3548,-1200,-62,117,0,0
93.55258,-15512,-4152,-3408,-1184,-122,372,0,0
93.61895,-15448,-4236,-3688,-1168,-109,87,0,0
93.65214,-15576,-4136,-3548,-1200,75,141,0,0
93.7019,-15480,-4212,-3604,-1200,-2,229,0,0
93.7351,-15388,-4192,-3616,-1168,52,190,0,0
93.76828,-15540,-4308,-3572,-1216,17,234,0,0
93.81805,-15548,-4232,-3576,-1168,12,304,0,0
93.85123,-15524,-4268,-3680,-1152,-28,217,0,0
93.91761,-15612,-4164,-3412,-1200,-1,152,0,0
93.96738,-15536,-4296,-3648,-1200,47,255,0,0
94.00057,-15416,-4236,-3496,-1184,72,-23,0,0
94.03374,-15468,-4296,-3620,-1168,-109,187,0,0
94.06693,-15528,-4412,-3712,-1200,-251,76,0,0
94.11671,-15600,-4224,-3408,-1200,-150,94,0,0
94.18308,-15516,-4324,-3516,-1168,-116,132,0,0
94.21661,-15628,-4168,-3628,-1216,-95,132,0,0
94.29958,-15544,-4224,-3668,-1184,-12,231,0,0
94.33279,-15516,-4160,-3488,-1184,-96,52,0,0
94.41576,-15580,-4160,-3480,-1200,13,271,0,0
94.44897,-15444,-4260,-3888,-1152,-117,49,0,0
94.51534,-15464,-4176,-3464,-1184,-30,-51,0,0
94.56516,-15704,-4208,-3572,-1168,-50,170,0,0
94.59834,-15536,-4256,-3628,-1168,102,77,0,0
94.63153,-15580,-4248,-3476,-1232,-13,132,0,0
94.71452,-15528,-4240,-3528,-1200,72,103,0,0
94.74773,-15500,-4320,-3464,-1168,-33,238,0,0
94.8141,-15480,-4260,-3556,-1184,-51,193,0,0
94.8639,-15512,-4248,-3504,-1200,-82,128,0,0
94.89709,-15588,-4216,-3492,-1200,24,21,0,0
94.93029,-15364,-4208,-3604,-1168,26,58,0,0
94.98009,-15584,-4168,-3460,-1200,87,-16,0,0
95.01328,-15528,-4240,-3652,-1200,-14,47,0,0
95.07967,-15516,-4188,-3640,-1168,-108,71,0,0
95.12947,-15628,-4316,-3372,-1216,-70,108,0,0
95.16267,-15488,-4268,-3436,-1200,-13,203,0,0
95.19585,-15448,-4196,-3640,-1168,-55,84,0,0
95.22906,-15492,-4280,-3436,-1184,150,-18,0,0
95.31203,-15524,-4204,-3420,-1168,28,47,0,0
95.34523,-15560,-4228,-3264,-1184,2,146,0,0
95.39502,-15556,-4172,-3408,-1184,-58,232,0,0
95.42822,-15588,-4164,-3492,-1184,-77,211,0,0
95.46142,-15468,-4380,-3340,-1168,-3,129,0,0
95.51121,-15552,-4276,-3364,-1184,-45,178,0,0
95.5776,-15552,-4112,-3312,-1184,-39,82,0,0
95.61079,-15644,-4156,-3400,-1200,-27,204,0,0
95.644,-15416,-4316,-3492,-1200,3,83,0,0
95.67719,-15636,-4268,-3392,-1184,-213,170,0,0
95.76016,-15544,-4288,-3452,-1200,-154,305,0,0
95.80996,-15568,-4180,-3312,-1168,-42,184,0,0
95.82657,-15520,-4224,-3376,-1216,-79,194,0,0
95.90954,-15628,-4212,-3428,-1168,-78,-4,0,0
95.94275,-15552,-4160,-3556,-1184,18,90,0,0
95.99254,-15552,-4272,-3304,-1184,-110,227,0,0
96.02573,-15468,-4208,-3568,-1200,-73,138,0,0
96.05894,-15600,-4244,-3596,-1184,-82,207,0,0
96.10873,-15560,-4180,-3352,-1216,-41,53,0,0
96.20832,-15652,-4372,-3192,-1168,-93,32,0,0
96.24152,-15560,-4264,-3368,-1200,-16,155,0,0
96.29131,-15544,-4200,-3304,-1168,-54,177,0,0
96.32449,-15612,-4240,-3332,-1168,-42,83,0,0
96.3577,-15404,-4280,-3356,-1184,-14,221,0,0
96.39088,-15468,-4312,-3284,-1152,-109,203,0,0
96.47387,-15612,-4296,-3236,-1200,-110,156,0,0
96.50707,-15548,-4256,-3356,-1168,-20,135,0,0
96.55687,-15636,-4208,-3276,-1200,-86,170,0,0
96.59006,-15596,-4292,-3372,-1168,32,128,0,0
96.62326,-15560,-4356,-3396,-1168,-43,101,0,0
96.67305,-15492,-4268,-3404,-1200,-110,81,0,0
96.73892,-15560,-4164,-3236,-1184,-48,86,0,0
96.77213,-15540,-4256,-3492,-1200,-36,73,0,0
96.80533,-15604,-4188,-3360,-1168,4,16,0,0
96.85511,-15612,-4204,-3168,-1168,-62,-66,0,0
96.87172,-15588,-4208,-3180,-1168,19,104,0,0
96.92152,-15568,-4352,-3424,-1184,15,-84,0,0
96.9547,-15636,-4216,-3036,-1168,-108,234,0,0
97.0377,-15580,-4296,-3376,-1136,-58,219,0,0
97.07089,-15632,-4168,-3072,-1184,-141,290,0,0
97.10409,-15452,-4128,-3436,-1184,-14,-41,0,0
97.18707,-15592,-4176,-3180,-1184,-181,-117,0,0
97.22028,-15628,-4312,-3200,-1184,36,115,0,0
97.25347,-15548,-4272,-3320,-1168,-78,102,0,0
97.30326,-15516,-4204,-3264,-1168,-71,-26,0,0
97.33646,-15728,-4320,-3060,-1168,44,43,0,0
97.36965,-15560,-4336,-3476,-1168,-22,-124,0,0
97.45264,-15672,-4256,-2956,-1136,-95,103,0,0
97.48584,-15588,-4284,-3180,-1168,-21,106,0,0
97.51904,-15612,-4252,-3212,-1152,8,-50,0,0
97.56882,-15640,-4212,-2976,-1168,27,28,0,0
97.6352,-15544,-4200,-3056,-1200,-118,229,0,0
97.71821,-15676,-4340,-3056,-1168,-122,217,0,0
97.7514,-15344,-4392,-3248,-1184,-134,132,0,0
97.78459,-15652,-4288,-3132,-1184,-294,470,0,0
97.8344,-15692,-4260,-3164,-1152,-362,797,0,0
97.86758,-15652,-4436,-3252,-1152,-134,762,0,0
97.93397,-15372,-4440,-3376,-1184,-208,51,0,0
97.96718,-15536,-4428,-3456,-1168,-3,-18,0,0
98.01695,-15508,-4472,-3240,-1152,-115,17,0,0
98.05016,-15480,-4328,-3216,-1168,-57,159,0,0
98.08336,-15512,-4436,-3236,-1184,-131,172,0,0
98.11655,-15528,-4416,-3204,-1168,-187,1,0,0
98.19954,-15596,-4312,-3148,-1152,28,169,0,0
98.23273,-15328,-4324,-3416,-1184,15,275,0,0
98.26593,-15520,-4532,-3368,-1168,45,95,0,0
98.31571,-15588,-4348,-3100,-1136,-173,205,0,0
98.34892,-15564,-4368,-3248,-1168,-150,43,0,0
98.38212,-15628,-4276,-3052,-1168,-21,15,0,0
98.43192,-15644,-4332,-3280,-1184,-100,203,0,0
98.49778,-15564,-4216,-3208,-1152,-4,201,0,0
98.51438,-15664,-4416,-3356,-1184,105,163,0,0
98.61398,-15480,-4296,-3184,-1152,128,57,0,0
98.68037,-15504,-4248,-3404,-1152,-72,200,0,0
98.73018,-15588,-4256,-3232,-1168,-107,182,0,0
98.76339,-15532,-4180,-3136,-1168,-93,184,1,0
98.79659,-15564,-4368,-3140,-1184,10,283,1,0
98.84638,-15520,-4308,-3284,-1152,-6,252,1,0
98.91264,-15652,-4300,-3148,-1168,-106,66,1,0
98.94599,-15636,-4188,-3168,-1216,-72,216,1,0
98.9792,-15632,-4328,-3292,-1120,-153,235,1,0
99.029,-15564,-4136,-3124,-1184,72,207,1,0
99.11201,-15496,-4376,-3384,-1136,57,245,1,0
99.12861,-15476,-4188,-3356,-1152,-52,-45,1,0
99.21161,-15692,-4304,-3060,-1120,-108,296,1,0
99.24481,-15572,-4284,-3128,-1168,-44,92,1,0
99.27802,-15628,-4296,-2928,-1152,-11,112,1,0
99.32781,-15548,-4284,-3220,-1136,17,236,1,0
99.36102,-15592,-4288,-3312,-1152,-58,-25,1,0
99.41081,-15712,-4236,-3056,-1168,70,337,1,0
99.47672,-15480,-4344,-3252,-1168,-44,361,1,0
99.49332,-15604,-4308,-3092,-1184,156,62,1,0
99.59296,-15604,-4292,-3108,-1168,32,219,1,0
99.62618,-15600,-4236,-3144,-1168,4,148,1,0
99.65939,-15576,-4324,-3160,-1152,10,37,1,0
99.70921,-15548,-4276,-3172,-1152,29,119,1,0
99.74241,-15568,-4388,-3020,-1120,30,215,1,0
99.80883,-15580,-4344,-3040,-1152,101,-59,1,0
99.82544,-15560,-4344,-3196,-1168,-17,89,1,0
99.89186,-15672,-4348,-3260,-1184,-120,210,1,0
99.92506,-15512,-4220,-3092,-1136,-15,178,1,0
99.95824,-15572,-4336,-3216,-1200,-106,156,1,0
100.0413,-15564,-4336,-3016,-1168,-104,285,1,0
100.0745,-15596,-4196,-3064,-1168,-76,144,1,0
100.1409,-15548,-4268,-3340,-1184,-161,110,1,0
100.1741,-15588,-4284,-3188,-1136,-55,233,1,0
100.224,-15624,-4464,-3448,-1168,-137,10,1,0
100.2904,-15600,-4184,-3020,-1168,-178,201,1,0
100.3402,-15588,-4340,-3224,-1152,2,265,1,0
100.3734,-15644,-4292,-3316,-1136,-224,291,1,0
100.4066,-15512,-4488,-3072,-1152,-121,333,1,0
100.4564,-15448,-4248,-3272,-1152,-173,103,1,0
100.556,-15616,-4272,-3032,-1136,-110,294,1,0
100.5891,-15464,-4420,-3424,-1152,-186,382,1,0
100.6391,-15528,-4360,-3324,-1152,-225,193,1,0
100.6723,-15656,-4328,-3124,-1168,-243,227,1,0
100.7221,-15580,-4208,-3176,-1168,-312,290,1,0
100.7885,-15604,-4388,-3180,-1168,-283,24,1,0
100.871,-15468,-4252,-2808,-1136,-280,216,1,0
100.9706,-15376,-4348,-3268,-1168,-204,277,1,0
101.0038,-15544,-4292,-3356,-1136,-129,-38,1,0
101.0536,-15588,-4356,-3276,-1152,-238,92,1,0
101.0868,-15612,-4256,-3180,-1152,-408,-28,1,0
101.1199,-15604,-4404,-3020,-1152,-229,117,1,0
101.203,-15500,-4436,-3192,-1152,-129,318,1,0
101.2196,-15464,-4424,-3832,-1168,-263,-74,1,0
101.3192,-15516,-3972,-2664,-1152,-124,-705,1,0
101.3523,-15688,-4268,-3204,-1152,-305,-70,1,0
101.3855,-15508,-4276,-3440,-1152,-344,-509,1,0
101.4519,-15540,-4328,-2880,-1136,-248,-640,1,0
101.5349,-15580,-4252,-2976,-1168,-298,-566,1,0
101.5515,-15776,-4240,-2884,-1152,-319,-269,1,0
101.6179,-15672,-4248,-2616,-1136,-411,-31,1,0
101.6511,-15700,-4180,-2776,-1152,-380,112,1,0
101.6843,-15604,-4280,-3000,-1136,-256,-240,1,0
101.7175,-15688,-4168,-2804,-1168,-266,-719,1,0
101.8005,-15680,-3948,-2496,-1072,-189,-591,1,0
101.8337,-15748,-3844,-2372,-1136,-305,-826,1,0
101.8503,-15852,-3944,-2532,-1152,-330,-565,1,0
101.9167,-15868,-4012,-2676,-1136,-536,-827,1,0
101.9499,-15824,-4000,-2424,-1168,-656,-1442,1,0
102.0661,-15648,-3508,-1516,-1136,-278,-1126,1,0
102.0993,-15832,-3992,-2216,-1152,-393,-47,1,0
102.1491,-15800,-3544,-1912,-1136,-193,-491,1,0
102.1657,-16044,-3908,-2180,-1152,-265,-349,1,0
102.2155,-15884,-3696,-2140,-1152,-168,-782,1,0
102.2818,-16064,-3792,-2076,-1136,-351,-1208,1,0
102.315,-16076,-3664,-1552,-1152,-144,-314,1,0
102.3652,-16028,-3776,-1792,-1136,-321,446,1,0
102.3984,-15736,-3560,-1632,-1152,-255,-311,1,0
102.4315,-15992,-3592,-1568,-1120,-197,-426,1,0
102.5146,-15888,-3704,-1732,-1120,-235,-107,1,0
102.5478,-15784,-3728,-1624,-1152,-257,-734,1,0
102.581,-16092,-3520,-1456,-1168,-137,-670,1,0
102.6308,-16096,-3688,-2064,-1152,196,-183,1,0
102.6641,-15772,-3220,-1468,-1184,64,-1620,1,0
102.7471,-15952,-3312,-616,-1136,-26,-887,1,0
102.7637,-16160,-3540,-1168,-1168,-115,27,1,0
102.8135,-15908,-3404,-1156,-1120,-49,-460,1,0
102.8467,-16004,-3492,-524,-1200,-257,-73,1,0
102.8966,-16016,-3348,-1072,-1152,-222,-83,1,0
102.963,-15940,-3588,-1388,-1104,-38,-702,1,0
102.9962,-16064,-3280,-848,-1104,-281,-983,1,0
103.1124,-16072,-3360,-684,-1136,-338,-219,1,0
103.1457,-15916,-3336,-1096,-1104,-125,-1015,1,0
103.1789,-15996,-3200,-320,-1152,-147,-528,1,0
103.2283,-16108,-3564,-236,-1136,-86,107,1,0
103.2616,-16000,-3412,-1008,-1120,-74,-408,1,0
103.2945,-16000,-3192,-652,-1136,36,-1574,1,0
103.3774,-16188,-3304,-36,-1168,-266,-1368,1,0
103.4106,-15996,-3152,-576,-1152,-132,332,1,0
103.4603,-16052,-3444,-168,-1120,-85,-709,1,0
103.4769,-16020,-3236,-196,-1168,-139,-69,1,0
103.5267,-16008,-3188,-472,-1152,-59,-791,1,0
103.5599,-16028,-3292,-188,-1120,52,-1127,1,0
103.6262,-16020,-3208,180,-1152,-34,-1329,1,0
103.676,-16212,-3596,-308,-1168,-104,-641,1,0
103.7092,-15864,-3360,320,-1136,-214,-308,1,0
103.7921,-16040,-3332,224,-1136,-154,5,1,0
103.8253,-15972,-3124,128,-1152,53,-613,1,0
103.8585,-16020,-3292,704,-1152,-78,-625,1,0
103.9249,-16136,-3248,620,-1136,-83,-12,1,0
103.9746,-15952,-3144,148,-1136,-152,187,1,0
104.0078,-15920,-3244,480,-1136,-160,-515,1,0
104.0409,-16092,-3280,504,-1136,-72,-389,1,0
104.0907,-16056,-3260,876,-1136,-84,-292,1,0
104.1239,-16048,-3388,392,-1168,-14,-487,1,0
104.1571,-16092,-3204,1132,-1136,-191,-548,1,0
104.24,-16144,-3244,772,-1104,-18,38,1,0
104.2732,-16000,-3248,488,-1136,15,-763,1,0
104.3399,-15980,-3316,1152,-1152,-42,-278,1,0
104.4229,-16204,-3284,1080,-1152,-121,-77,1,0
104.4561,-15936,-3304,992,-1136,-65,525,1,0
104.539,-15912,-3208,920,-1168,-11,-208,1,0
104.5556,-16020,-3280,800,-1152,16,-184,1,0
104.6883,-16136,-3188,1128,-1152,-86,-462,1,0
104.7215,-15884,-3200,1020,-1120,26,1,1,0
104.7547,-16020,-3252,932,-1120,-44,-136,1,0
104.8045,-16040,-3092,1136,-1136,-15,311,1,0
104.8708,-16016,-3104,1148,-1136,50,-167,1,0
104.8874,-16040,-3096,984,-1120,-52,-147,1,0
104.9538,-16060,-3104,1208,-1168,-109,143,1,0
104.9869,-15908,-3048,1100,-1136,-36,329,1,0
105.0201,-16008,-3160,984,-1136,-223,207,1,0
105.0699,-16024,-3292,1144,-1136,-90,-132,1,0
105.1031,-16324,-3496,1104,-1136,-468,-716,1,0
105.1698,-16116,-3416,1372,-1120,-81,-12,1,0
105.203,-16092,-3132,1164,-1152,-24,136,1,0
105.2528,-16004,-3324,1320,-1120,-52,369,1,0
105.286,-15904,-3276,1472,-1104,-170,156,1,0
105.3192,-15944,-3268,1184,-1104,-154,441,1,0
105.3524,-15920,-3252,1140,-1104,-91,-120,1,0
105.4686,-16088,-3164,1396,-1120,-29,1,1,0
105.5018,-16028,-3380,1472,-1104,-71,198,1,0
105.5516,-16016,-3204,1152,-1136,-82,350,1,0
105.5848,-15968,-3324,964,-1120,-67,-205,1,0
105.6346,-16068,-3228,1420,-1136,-196,462,1,0
105.701,-15824,-3224,1244,-1136,-111,342,1,0
105.7176,-15976,-3208,956,-1136,-20,-188,1,0
105.7674,-15972,-3420,1332,-1104,-43,-164,1,0
105.8172,-15948,-3288,1304,-1120,-27,135,1,0
105.9168,-16016,-3244,1056,-1104,-232,-40,1,0
105.95,-16056,-3300,1160,-1104,-93,556,1,0
105.9998,-16056,-3100,1320,-1136,-121,-49,1,0
106.0164,-15912,-3332,1468,-1104,-110,81,1,0
106.0663,-15964,-3364,1360,-1120,-44,369,1,0
106.1161,-15940,-3220,1200,-1120,-61,-162,1,0
106.1825,-16096,-3224,1484,-1152,-98,96,1,0
106.2157,-15896,-3280,1224,-1120,-103,616,1,0
106.2655,-15892,-3164,1212,-1120,-112,-278,1,0
106.2987,-15820,-3180,1460,-1120,-18,581,1,0
106.4149,-15988,-3504,1040,-1104,26,149,1,0
106.4315,-15900,-3272,1216,-1136,-44,-291,1,0
106.4813,-15856,-3332,1188,-1120,-96,811,1,0
106.5311,-15856,-3332,920,-1152,-17,-123,1,0
106.5643,-15972,-3388,1692,-1136,-22,-176,1,0
106.5809,-15900,-3408,1292,-1152,-72,373,1,0
106.6307,-16076,-3352,1320,-1136,-97,-75,1,0
106.7137,-16244,-3496,516,-1120,-148,1026,1,0
106.7468,-15772,-3272,1412,-1120,-59,-142,1,0
106.7801,-15996,-3228,1248,-1136,-73,132,1,0
106.8299,-16084,-3464,1384,-1088,-101,189,1,0
106.8631,-16020,-3332,1060,-1120,-42,370,1,0
106.8963,-16048,-3276,1456,-1104,-81,-110,1,0
106.9627,-15988,-3148,1340,-1120,-28,369,1,0
107.0125,-16040,-3368,1184,-1104,-54,-196,1,0
107.0457,-15996,-3316,1116,-1104,-72,49,1,0
107.0789,-15876,-3200,1500,-1168,-36,-105,1,0
107.1287,-16060,-3264,1248,-1136,-103,153,1,0
107.1619,-15864,-3196,1528,-1136,-42,177,1,0
107.2117,-16052,-3300,1124,-1104,-23,135,1,0
107.2781,-16020,-3256,1512,-1152,-97,0,1,0
107.3445,-16044,-3284,1328,-1120,-139,206,1,0
107.3778,-15876,-3228,1460,-1136,-35,193,1,0
107.4608,-15916,-3288,1492,-1104,-265,1182,1,0
107.5106,-15888,-3248,852,-1072,49,-120,1,0
107.5438,-16008,-3376,1272,-1104,20,-303,1,0
107.6102,-16128,-3216,1548,-1120,-70,63,1,0
107.6434,-15964,-3276,956,-1088,-53,364,1,0
107.6932,-15980,-3256,1224,-1136,-52,-441,1,0
107.7264,-15980,-3524,1532,-1120,-63,18,1,0
107.7596,-15956,-3188,1272,-1072,-50,152,1,0
107.8094,-16056,-3272,1144,-1104,-53,-47,1,0
107.8758,-15928,-3272,1504,-1088,-13,162,1,0
107.9422,-16004,-3228,1252,-1120,-13,146,1,0
107.9754,-15968,-3364,1436,-1120,-36,-60,1,0
108.0252,-15964,-3412,1536,-1104,15,382,1,0
108.0418,-16024,-3212,1128,-1120,-21,201,1,0
108.0916,-15972,-3300,1456,-1104,-74,-40,1,0
108.1414,-15912,-3264,1248,-1120,-177,447,1,0
108.1746,-15920,-3400,1140,-1088,-139,282,1,0
108.241,-15968,-3220,1324,-1104,-155,-5,1,0
108.2908,-15956,-3276,1048,-1136,-135,440,1,0
108.3074,-16116,-3232,1368,-1120,-84,-177,1,0
108.3572,-15988,-3108,1216,-1120,18,192,1,0
108.3904,-15976,-3488,1248,-1104,50,247,1,0
108.4402,-15980,-3212,1452,-1104,3,78,1,0
108.4734,-16056,-3312,1360,-1120,-73,-3,1,0
108.5398,-16004,-3212,1240,-1120,-88,298,1,0
108.5897,-15848,-3280,1476,-1072,-40,67,1,0
108.6229,-15936,-3212,1352,-1104,-109,79,1,0
108.6892,-16100,-3312,1148,-1136,-27,260,1,0
108.7391,-15868,-3348,1368,-1072,-70,-113,1,0
108.8221,-15984,-3332,1344,-1136,-48,245,1,0
108.8885,-15924,-3284,1288,-1120,-169,169,1,0
108.9051,-16044,-3304,1620,-1104,-58,267,1,0
108.9549,-15688,-3344,1156,-1088,-256,548,1,0
109.0047,-15988,-2968,1176,-1104,-159,66,1,0
109.0379,-16004,-3260,1472,-1152,-29,165,1,0
109.0711,-15960,-3204,1280,-1136,-21,234,1,0
109.1043,-16084,-3200,1240,-1120,-39,-170,1,0
109.2205,-16040,-3276,1384,-1152,-110,-301,1,0
109.2537,-15944,-3280,1468,-1136,-63,387,1,0
109.2869,-16120,-3128,1256,-1104,-54,23,1,0
109.3367,-16012,-3256,1428,-1072,-27,244,1,0
109.3699,-15916,-3364,1204,-1136,-19,299,1,0
109.4197,-15976,-3112,1452,-1136,10,-190,1,0
109.5193,-16100,-3316,1536,-1088,-20,-30,1,0
109.5525,-16096,-3408,1496,-1120,-89,46,1,0
109.6023,-16072,-3292,1184,-1136,-108,-151,1,0
109.6355,-15920,-3260,1864,-1104,-60,301,1,0
109.6687,-15996,-3224,1604,-1120,-85,11,1,0
109.7186,-15912,-3180,1492,-1088,35,193,1,0
109.7517,-15928,-3164,1532,-1088,-51,-291,1,0
109.8675,-15900,-3300,1720,-1104,-20,330,1,0
109.9007,-16140,-3088,1400,-1088,-64,-51,1,0
109.9338,-15972,-3180,1572,-1056,-114,63,1,0
109.9836,-15968,-3084,1584,-1120,-76,91,1,0
110.0168,-15976,-3356,1776,-1120,-41,206,1,0
110.0499,-16020,-3128,1184,-1104,-80,48,1,0
110.0997,-15876,-3212,1900,-1120,-145,-135,1,0
110.1661,-15988,-3160,1720,-1136,-88,453,1,0
110.1993,-16044,-3136,1300,-1104,-82,111,1,0
110.2656,-16060,-3100,1688,-1072,-90,-51,1,0
110.3154,-15952,-3164,1728,-1120,-106,199,1,0
110.3486,-15944,-3108,1380,-1104,-45,-90,1,0
110.3984,-16024,-3128,1640,-1120,-58,47,0,0
110.4647,-15904,-3352,1652,-1104,-57,403,0,0
110.4979,-15860,-3176,1668,-1104,-148,-155,0,0
110.5311,-16136,-3344,1328,-1104,-127,185,0,0
110.5809,-16024,-3144,1672,-1104,-52,232,0,0
110.6472,-15892,-3128,1696,-1088,-25,111,0,0
110.6638,-16024,-3252,1692,-1104,-35,293,0,0
110.7302,-15944,-3180,1488,-1072,-105,147,0,0
110.7634,-15988,-3232,1784,-1104,-99,204,0,0
110.7966,-15952,-3076,1628,-1072,-24,313,0,0
110.8298,-15940,-3292,1540,-1088,-67,41,0,0
110.8795,-15992,-3380,1664,-1120,-98,395,0,0
110.9459,-15904,-3160,1592,-1104,-93,-82,0,0
110.9791,-15912,-3392,1568,-1088,-92,159,0,0
111.0289,-15936,-3120,1564,-1072,-76,166,0,0
111.062,-15992,-3324,1476,-1088,-82,259,0,0
111.0952,-16032,-3264,1648,-1072,-100,-7,0,0
111.1782,-16084,-3164,1660,-1120,-169,415,0,0
111.2114,-15916,-3280,1804,-1104,-102,207,0,0
111.3275,-15948,-3152,1424,-1088,-69,140,0,0
111.3607,-16016,-3288,1768,-1072,-67,-165,0,0
111.3939,-15940,-3080,1504,-1120,-80,335,0,0
111.4436,-16132,-3400,1616,-1120,-130,52,0,0
111.4768,-15892,-3240,1776,-1072,-66,300,0,0
111.51,-16028,-3248,1420,-1104,-44,163,0,0
111.593,-15976,-3228,1632,-1104,-96,-88,0,0
111.6262,-15904,-3120,1916,-1104,-66,166,0,0
111.6593,-15924,-3192,1484,-1104,-157,309,0,0
111.7423,-15924,-3248,1584,-1120,-52,185,0,0
111.7755,-15980,-3108,1548,-1120,-67,-186,0,0
111.8087,-16068,-3220,1608,-1120,-92,329,0,0
111.8419,-15876,-3256,1556,-1088,-38,288,0,0
111.9248,-16032,-3224,1608,-1088,-75,30,0,0
111.958,-15904,-3268,1560,-1088,-32,134,0,0
112.0078,-15944,-3248,1512,-1088,-56,-98,0,0
112.0244,-16012,-3368,1760,-1072,-72,143,0,0
112.0741,-16008,-3252,1644,-1088,-98,153,0,0
112.1239,-15848,-3208,1632,-1072,-17,296,0,0
112.1903,-16124,-3200,1900,-1104,-102,111,0,0
112.2235,-16024,-3276,1612,-1104,-73,546,0,0
112.2567,-15868,-3236,1480,-1104,-12,483,0,0
112.3064,-15892,-3068,1800,-1088,-254,678,0,0
112.3728,-15824,-3316,1580,-1104,-218,1224,0,0
112.406,-15884,-3212,1460,-1104,-370,1347,0,0
112.4558,-15840,-3428,876,-1088,-273,1995,0,0
112.4889,-15916,-3168,916,-1104,-214,1221,0,0
112.5221,-16068,-3568,896,-1104,120,1673,0,0
112.5719,-15900,-3304,436,-1072,157,904,0,0
112.6383,-15768,-3144,1188,-1088,194,-62,0,0
112.6715,-16028,-3252,888,-1104,157,675,0,0
112.7212,-16136,-3544,580,-1104,200,1500,0,0
112.7876,-16012,-3356,632,-1072,25,1632,0,0
112.8208,-15892,-3364,692,-1072,-54,2011,0,0
112.8871,-15908,-3760,268,-1088,168,2380,0,0
112.9369,-15984,-3524,-212,-1072,178,2206,0,0
112.9701,-15996,-3576,-460,-1072,-37,1680,0,0
113.0199,-15876,-3600,-188,-1136,247,1844,0,0
113.0531,-15980,-3528,-372,-1072,149,1688,0,0
113.0862,-16012,-3656,-636,-1088,162,1937,0,0
113.136,-15888,-3468,-668,-1072,50,909,0,0
113.2359,-16008,-3640,-1140,-1120,144,769,0,0
113.2691,-15980,-3644,-652,-1072,66,796,0,0
113.3188,-16060,-3456,-1080,-1104,111,1029,0,0
113.352,-15952,-3688,-1080,-1088,119,1095,0,0
113.3852,-15928,-3636,-1184,-1088,14,1046,0,0
113.4184,-15972,-3488,-1012,-1088,-44,823,0,0
113.5014,-16100,-3712,-1280,-1120,56,1161,0,0
113.5345,-15984,-3736,-1528,-1104,69,934,0,0
113.5677,-15868,-3604,-1104,-1072,19,971,0,0
113.6175,-15976,-3636,-1444,-1104,65,375,0,0
113.6507,-15928,-3720,-1616,-1072,25,691,0,0
113.6839,-15868,-3712,-1424,-1104,142,579,0,0
113.7502,-15976,-3772,-1560,-1088,64,938,0,0
113.8332,-15952,-3904,-1600,-1104,-64,801,0,0
113.883,-15796,-3580,-1692,-1072,54,923,0,0
113.9161,-15988,-3752,-1692,-1104,-12,989,0,0
113.9825,-15764,-3832,-1956,-1088,62,629,0,0
114.0157,-15924,-3988,-1932,-1072,49,463,0,0
114.099,-15880,-3888,-2036,-1072,65,473,0,0
114.1156,-15644,-3652,-1788,-1104,65,650,0,0
114.182,-15920,-4140,-2400,-1120,28,597,0,0
114.2152,-15836,-3820,-2164,-1088,-2,86,0,0
114.2484,-15840,-3852,-2128,-1088,26,661,0,0
114.3148,-15600,-4220,-2064,-1104,-44,171,0,0
114.3646,-15716,-3692,-2228,-1088,388,-201,0,0
114.3977,-16164,-3992,-1908,-1104,389,40,0,0
114.4309,-15940,-4116,-2416,-1120,345,623,0,0
114.4807,-15760,-4036,-2056,-1104,215,86,0,0
114.5139,-16040,-4076,-2088,-1072,-261,113,0,0
114.5803,-15836,-3800,-1892,-1088,-290,97,0,0
114.6301,-15780,-3900,-2080,-1072,-166,287,0,0
114.6633,-15872,-3900,-2148,-1072,44,44,0,0
114.7463,-15904,-3996,-2056,-1104,166,457,0,0
114.7795,-15796,-4008,-2108,-1088,188,455,0,0
114.8127,-15780,-3884,-2216,-1088,108,209,0,0
114.8957,-15856,-3944,-2080,-1072,-51,395,0,0
114.962,-15748,-3904,-2352,-1104,-35,235,0,0
114.9952,-15820,-4044,-2176,-1088,104,312,0,0
115.0782,-15640,-3816,-2156,-1040,267,209,0,0
115.1446,-15940,-4252,-2360,-1072,173,125,0,0
115.1944,-15836,-3964,-2196,-1072,-36,6,0,0
115.2608,-15704,-3888,-1968,-1104,103,-24,0,0
115.294,-16028,-4008,-1980,-1088,518,94,0,0
115.3769,-15644,-3820,-2224,-1104,100,-30,0,0
115.4101,-15900,-3928,-2092,-1056,242,52,0,0
115.4931,-15832,-3980,-2012,-1088,-36,0,0,0
115.5097,-15828,-3988,-2072,-1072,24,51,0,0
115.5595,-15820,-3920,-1936,-1072,-82,85,0,0
115.6425,-15764,-3976,-2208,-1088,-68,126,0,0
115.6757,-15816,-3908,-2028,-1088,-30,88,0,0
115.7089,-15796,-3888,-2008,-1088,31,183,0,0
115.7421,-15740,-3884,-1924,-1072,104,4,0,0
115.7919,-15736,-3856,-1812,-1088,9,9,0,0
115.825,-15800,-3916,-1988,-1072,108,-8,0,0
115.8914,-15780,-3936,-1836,-1104,-137,314,0,0
116.0076,-15816,-4012,-2000,-1104,-99,282,0,0
116.0408,-15892,-4012,-1956,-1072,67,232,0,0
116.0738,-15828,-3824,-2132,-1072,-41,243,0,0
116.1238,-15768,-3796,-1896,-1088,-8,17,0,0
116.157,-15924,-3960,-1956,-1056,-46,241,0,0
116.1902,-15796,-3928,-1936,-1088,23,137,0,0
116.2731,-15692,-3944,-2172,-1088,183,197,0,0
116.323,-15780,-3840,-1872,-1072,28,207,0,0
116.4225,-15828,-3956,-1928,-1088,2,349,0,0
116.4557,-15916,-4028,-2188,-1104,12,314,0,0
116.5719,-15788,-4064,-2316,-1088,-115,212,0,0
116.6051,-15728,-3968,-2036,-1072,-29,141,0,0
116.6549,-15824,-3948,-2128,-1040,-130,258,0,0
116.6881,-15808,-3900,-2020,-1120,-73,81,0,0
116.7213,-15844,-4016,-2048,-1056,-2,190,0,0
116.7545,-15796,-4004,-2104,-1072,-61,215,0,0
116.8706,-15824,-3892,-2052,-1072,-133,180,0,0
116.9536,-15748,-3988,-1972,-1056,-123,136,0,0
116.9868,-15876,-4012,-1932,-1088,-7,152,0,0
117.0366,-15900,-3924,-2112,-1072,63,10,0,0
117.0532,-15800,-4068,-2076,-1072,77,-44,0,0
117.103,-15780,-4020,-2016,-1072,-29,-66,0,0
117.1362,-15848,-4116,-2088,-1056,29,160,0,0
117.2026,-15756,-3936,-2024,-1104,-49,180,0,0
117.2524,-15780,-3800,-2004,-1088,203,30,0,0
117.2855,-15920,-3876,-1868,-1104,-89,65,0,0
117.3685,-15732,-3944,-2020,-1088,-13,240,0,0
117.4017,-15796,-4136,-2076,-1072,-20,180,0,0
117.4681,-15820,-4016,-1844,-1056,-66,189,0,0
117.5511,-15840,-3980,-1912,-1104,-92,183,0,0
117.5843,-15816,-4008,-2148,-1088,-111,118,0,0
117.6175,-15904,-4124,-1916,-1040,27,193,0,0
117.6673,-15836,-3944,-2016,-1104,-122,341,0,0
117.7005,-15744,-3972,-1872,-1056,-57,62,0,0
117.7668,-15856,-4024,-1984,-1072,-144,188,0,0
117.8166,-15868,-3988,-2164,-1072,-73,94,0,0
117.8996,-15748,-3960,-2000,-1040,-54,296,0,0
117.9162,-15820,-4036,-2004,-1072,-60,254,0,0
117.9992,-15764,-3852,-1988,-1088,-108,97,0,0
118.0656,-15780,-3928,-1972,-1072,-172,158,0,0
118.1154,-15876,-3932,-1844,-1072,-2,85,0,0
118.1486,-15816,-3992,-2108,-1072,17,83,0,0
118.1818,-15852,-3920,-1952,-1088,-58,-93,0,0
118.2316,-15812,-3968,-1800,-1056,-163,310,0,0
118.3145,-15888,-3916,-1916,-1088,-159,162,0,0
118.4141,-15796,-4040,-2052,-1088,-24,229,0,0
118.4473,-15888,-3928,-1920,-1072,-32,87,0,0
118.4805,-15872,-4048,-1824,-1056,-106,125,0,0
118.5137,-15756,-3976,-2088,-1056,-135,318,0,0
118.5635,-15820,-4036,-1940,-1056,-159,322,0,0
118.6133,-15784,-3956,-2068,-1072,-113,221,0,0
118.6797,-15748,-4004,-1948,-1088,-164,160,0,0
118.7128,-15880,-3912,-1904,-1072,-24,172,0,0
118.7792,-15908,-3960,-2088,-1072,18,231,0,0
118.8124,-15828,-4048,-2096,-1072,-177,214,0,0
118.8622,-15844,-4044,-2104,-1072,-135,131,0,0
118.8954,-15856,-3964,-1720,-1056,-272,263,0,0
118.9784,-15796,-4028,-2148,-1040,-141,32,0,0
119.0116,-15908,-3932,-1832,-1040,-63,135,0,0
119.0448,-15808,-3888,-2104,-1072,-21,195,0,0
119.078,-15752,-3976,-2068,-1072,-34,219,0,0
119.1278,-15896,-4028,-1876,-1056,-52,-126,0,0
119.1941,-16040,-3896,-2052,-1040,-220,434,0,0
119.2273,-15864,-3972,-2012,-1040,115,0,0,0
119.2771,-15924,-4040,-2080,-1056,-142,254,0,0
119.3103,-15740,-3912,-1996,-1088,8,223,0,0
119.3601,-15788,-4080,-2004,-1072,-63,343,0,0
119.4265,-15824,-4036,-2072,-1088,14,71,0,0
119.4431,-15808,-4108,-2044,-1040,-66,140,0,0
119.5095,-15736,-3996,-2188,-1072,-32,157,0,0
119.5427,-15824,-3976,-2048,-1056,-49,389,0,0
119.5759,-15828,-4072,-2132,-1072,-19,279,0,0
119.6091,-15744,-4120,-2140,-1040,76,134,0,0
119.6921,-15812,-4000,-2196,-1104,-88,328,0,0
119.7086,-15740,-4024,-1932,-1088,-145,291,0,0
119.7585,-15844,-4032,-2076,-1024,-27,62,0,0
119.7916,-15780,-4032,-2048,-1072,-69,48,0,0
119.8414,-15740,-4112,-2196,-1056,-14,65,0,0
119.8746,-15988,-4024,-1840,-1056,1,141,0,0
119.941,-15752,-3984,-2156,-1056,-64,52,0,0
119.9911,-15864,-4036,-1876,-1072,-250,236,0,0
120.0243,-15704,-4068,-2212,-1056,-89,408,0,0
120.0575,-15684,-3864,-2196,-1072,-70,-137,0,0
120.1406,-15888,-4016,-1924,-1056,7,198,0,0
120.1738,-15764,-4028,-2320,-1072,-94,52,0,0
120.2069,-15800,-3988,-2036,-1072,-134,-182,0,0
120.2401,-15864,-4096,-2296,-1040,53,-655,0,0
120.2899,-15972,-3960,-1724,-1072,-408,-47,0,0
120.3232,-15728,-4016,-2136,-1104,-285,188,0,0
120.4061,-15828,-4184,-2028,-1072,-248,-46,0,0
120.4227,-15744,-4196,-1832,-1088,-80,-180,0,0
120.4725,-15768,-4256,-1952,-1072,4,100,0,0
120.5057,-15740,-4088,-1784,-1072,-52,138,0,0
120.5555,-15880,-4272,-1996,-1056,63,-165,0,0
120.5887,-15680,-4200,-1960,-1056,-31,-95,0,0
120.6551,-15824,-4192,-1752,-1040,-143,101,0,0
120.7049,-15904,-4248,-1800,-1024,-202,225,0,0
120.7381,-15628,-4368,-1800,-1088,-300,85,0,0
120.7713,-15732,-4336,-1856,-1072,-335,226,0,0
120.8045,-15832,-4420,-1812,-1040,-234,60,0,0
120.8543,-15800,-4328,-1860,-1072,-31,223,0,0
120.9539,-15768,-4348,-1668,-1072,-134,446,0,0
121.0037,-15688,-4284,-1928,-1072,-164,228,0,0
121.0369,-15728,-4296,-1780,-1040,-58,9,0,0
121.0868,-15780,-4236,-1668,-1072,-255,410,0,0
121.1199,-15664,-4160,-1988,-1088,-146,193,0,0
121.1532,-15828,-4328,-2048,-1072,-240,189,0,0
121.2196,-15676,-4344,-2020,-1072,-171,368,0,0
121.2527,-15848,-4116,-1800,-1040,-336,150,0,0
121.3026,-15632,-4344,-1876,-1072,-62,208,0,0
121.3357,-15612,-4188,-1940,-1040,-70,20,0,0
121.3856,-15772,-4240,-1732,-1072,-54,252,0,0
121.4188,-15748,-4308,-2116,-1056,67,120,0,0
121.4851,-15756,-4280,-1864,-1008,-113,45,0,0
121.535,-15776,-4264,-1888,-1056,-145,281,0,0
121.5515,-15772,-4300,-1856,-1040,-104,236,0,0
121.6345,-15808,-4260,-1872,-1056,-102,165,0,0
121.6512,-15832,-4264,-1600,-1056,92,247,0,0
121.7175,-15632,-4132,-1860,-1040,171,212,0,0
121.7507,-15840,-4352,-2084,-1056,-151,52,0,0
121.8171,-15800,-4180,-1960,-1072,-196,389,0,0
121.8503,-15644,-4180,-2000,-1056,-1,203,0,0
121.9001,-15740,-4280,-1916,-1040,223,125,0,0
121.9333,-15764,-4264,-1792,-1056,232,31,0,0
121.9665,-15696,-4344,-2048,-1056,138,157,0,0
122.0163,-15624,-4288,-1944,-1040,-49,-8,0,0
122.0495,-15788,-4272,-1780,-1072,-92,220,0,0
122.116,-15668,-4228,-2004,-1088,-80,229,1,0
122.1658,-15876,-4224,-1880,-1040,21,191,0,0
122.199,-15756,-4132,-1852,-1072,104,127,0,0
122.2321,-15768,-4292,-1780,-1024,1,314,0,0
122.2653,-15760,-4268,-2100,-1072,-42,229,0,0
122.3151,-15732,-4252,-1876,-1056,-89,277,0,0
122.3815,-15704,-4264,-2116,-1056,-72,146,0,0
122.4147,-15816,-4216,-1920,-1088,-122,130,0,0
122.4645,-15736,-4116,-1828,-1056,-19,150,0,0
122.4977,-15716,-4188,-1964,-1040,-26,177,0,0
122.5475,-15764,-4248,-1940,-1072,8,208,0,0
122.5807,-15776,-4276,-1780,-1040,-43,60,0,0
122.6471,-15756,-4240,-1784,-1040,24,133,0,0
122.6803,-15792,-4240,-1852,-1072,-124,196,0,0
122.7301,-15776,-4152,-1924,-1040,-29,158,0,0
122.7633,-15720,-4176,-1968,-1056,-110,117,0,0
122.8297,-15904,-4144,-1836,-1040,-20,271,0,0
122.8795,-15800,-4156,-1788,-1072,91,349,0,0
122.9127,-15708,-4244,-1868,-1072,127,129,0,0
122.9459,-15712,-4184,-1928,-1040,81,-30,0,0
122.9791,-15876,-4200,-1984,-1072,-32,228,0,0
123.0289,-15744,-4164,-2004,-1024,-36,12,0,0
123.0953,-15828,-4096,-1912,-1056,-38,128,0,0
123.1281,-15884,-4172,-1812,-1040,-78,266,0,0
123.2115,-15800,-4092,-1924,-1072,-40,321,0,0
123.2447,-15776,-4096,-1912,-1040,-104,272,0,0
123.2779,-15656,-4124,-2128,-1056,-71,293,0,0
123.3277,-15824,-4044,-2016,-1056,-102,259,0,0
123.3609,-15828,-4000,-1864,-1056,-57,71,0,0
123.3941,-15864,-3932,-1920,-1040,-88,216,0,0
123.4771,-15768,-4016,-2048,-1024,-11,249,0,0
123.5103,-15836,-3996,-1956,-1056,-105,275,0,0
123.5601,-15856,-4032,-1852,-1056,4,279,0,0
123.5933,-15720,-4148,-2052,-1056,71,155,0,0
123.6265,-15780,-3984,-1872,-1056,-13,37,0,0
123.6597,-15880,-4044,-1892,-1072,-117,257,0,0
123.7427,-15824,-4084,-1988,-1040,-26,254,0,0
